"","uid","agebin","game_result_id","trial_num","trial_type","compatible","isswitch","response_time","accuracy"
"1",8,5,38852,1,"P",1,0,1323,1
"2",8,5,38852,2,"P",1,0,1057,1
"3",8,5,38852,3,"M",1,1,2624,1
"4",8,5,38852,4,"M",0,0,1613,1
"5",8,5,38852,5,"M",1,0,1482,1
"6",8,5,38852,6,"M",1,0,875,1
"7",8,5,38852,7,"P",0,1,1353,1
"8",8,5,38852,8,"P",0,0,1199,1
"9",8,5,38852,9,"P",1,0,927,1
"10",8,5,38852,10,"P",0,0,1136,1
"11",8,5,38852,11,"P",0,0,938,1
"12",8,5,38852,12,"P",0,0,1262,1
"13",8,5,38852,13,"P",1,0,1113,1
"14",8,5,38852,14,"M",0,1,1479,1
"15",8,5,38852,15,"M",0,0,1003,1
"16",8,5,38852,16,"M",0,0,1088,1
"17",8,5,38852,17,"M",1,0,1127,1
"18",8,5,38852,18,"M",0,0,1260,1
"19",8,5,38852,19,"M",0,0,1249,1
"20",8,5,38852,20,"P",1,1,1404,1
"21",8,5,38852,21,"P",1,0,942,1
"22",8,5,38852,22,"M",1,1,1601,1
"23",8,5,38852,23,"M",0,0,1336,1
"24",8,5,38852,24,"M",0,0,1117,1
"25",8,5,38852,25,"M",1,0,1255,1
"26",8,5,38852,26,"M",0,0,1109,1
"27",8,5,38852,27,"M",1,0,1077,1
"28",8,5,38852,28,"M",0,0,1361,1
"29",8,5,38852,29,"P",1,1,1465,1
"30",8,5,38852,30,"P",1,0,1190,1
"31",8,5,38852,31,"M",1,1,974,1
"32",8,5,38852,34,"M",1,0,837,1
"33",8,5,38852,35,"M",1,0,988,1
"34",8,5,38852,36,"M",1,0,922,1
"35",8,5,38852,37,"P",1,1,1507,1
"36",8,5,38852,38,"P",1,0,895,1
"37",8,5,38852,39,"P",0,0,1195,1
"38",8,5,38852,40,"P",0,0,1039,1
"39",8,5,38852,41,"P",1,0,880,1
"40",8,5,38852,42,"P",1,0,837,1
"41",8,5,38852,43,"P",1,0,962,1
"42",8,5,38852,44,"P",1,0,1109,1
"43",8,5,38852,45,"M",1,1,1048,0
"44",8,5,38852,46,"M",0,0,1556,1
"45",8,5,38852,47,"M",0,0,1248,1
"46",8,5,38852,48,"M",1,0,1001,1
"47",8,5,38852,49,"P",0,1,1618,1
"48",8,5,41463,1,"P",1,0,681,1
"49",8,5,41463,2,"P",0,0,615,1
"50",8,5,41463,3,"P",1,0,809,1
"51",8,5,41463,4,"P",0,0,831,1
"52",8,5,41463,5,"P",1,0,763,1
"53",8,5,41463,6,"P",1,0,642,1
"54",8,5,41463,7,"P",0,0,851,1
"55",8,5,41463,9,"P",0,0,796,1
"56",8,5,41463,10,"M",1,1,1012,1
"57",8,5,41463,11,"M",0,0,951,1
"58",8,5,41463,12,"M",0,0,1004,1
"59",8,5,41463,13,"M",1,0,786,1
"60",8,5,41463,14,"M",0,0,1022,1
"61",8,5,41463,15,"M",1,0,832,1
"62",8,5,41463,16,"M",1,0,830,1
"63",8,5,41463,17,"M",1,0,744,1
"64",8,5,41463,18,"M",0,0,893,1
"65",8,5,41463,19,"P",0,1,924,1
"66",8,5,41463,20,"P",0,0,772,1
"67",8,5,41463,21,"P",0,0,876,1
"68",8,5,41463,22,"M",1,1,845,1
"69",8,5,41463,23,"M",1,0,830,1
"70",8,5,41463,24,"M",1,0,839,1
"71",8,5,41463,25,"M",1,0,733,1
"72",8,5,41463,26,"P",1,1,754,1
"73",8,5,41463,27,"P",1,0,859,1
"74",8,5,41463,28,"P",0,0,875,1
"75",8,5,41463,29,"P",1,0,867,1
"76",8,5,41463,30,"P",1,0,870,1
"77",8,5,41463,31,"P",1,0,770,1
"78",8,5,41463,32,"P",1,0,785,1
"79",8,5,41463,33,"P",0,0,889,1
"80",8,5,41463,34,"P",0,0,991,1
"81",8,5,41463,35,"P",1,0,745,1
"82",8,5,41463,36,"P",0,0,936,1
"83",8,5,41463,37,"P",1,0,742,1
"84",8,5,41463,39,"M",1,0,769,1
"85",8,5,41463,40,"M",0,0,941,1
"86",8,5,41463,41,"M",1,0,743,1
"87",8,5,41463,42,"M",1,0,841,1
"88",8,5,41463,43,"M",0,0,922,1
"89",8,5,41463,44,"M",0,0,828,1
"90",8,5,41463,45,"P",1,1,986,1
"91",8,5,41463,46,"P",1,0,789,1
"92",8,5,41463,48,"P",0,0,890,1
"93",8,5,41463,49,"M",0,1,1274,1
"94",8,5,41463,50,"P",1,1,1332,1
"95",8,5,41463,51,"P",0,0,1243,1
"96",8,5,41463,52,"P",0,0,1017,1
"97",8,5,41463,53,"P",1,0,932,1
"98",8,5,41463,54,"P",1,0,995,1
"99",8,5,41463,55,"M",0,1,1688,1
"100",8,5,41463,56,"M",1,0,829,1
"101",8,5,41463,57,"M",1,0,749,1
"102",8,5,41463,58,"M",0,0,1003,1
"103",8,5,41463,59,"M",1,0,783,1
"104",8,5,41463,60,"P",0,1,1200,1
"105",8,5,41463,61,"P",0,0,706,1
"106",8,5,41463,62,"P",0,0,789,1
"107",8,5,41463,63,"P",0,0,1012,1
"108",8,5,41463,64,"P",0,0,868,1
"109",8,5,41463,65,"P",0,0,852,1
"110",8,5,41463,66,"M",0,1,1179,1
"111",8,5,41574,1,"P",1,0,4691,1
"112",8,5,41574,2,"P",0,0,751,1
"113",8,5,41574,3,"P",0,0,851,1
"114",8,5,41574,4,"P",0,0,908,1
"115",8,5,41574,5,"P",0,0,647,1
"116",8,5,41574,6,"P",1,0,832,1
"117",8,5,41574,7,"P",1,0,765,1
"118",8,5,41574,8,"P",0,0,913,0
"119",8,5,41574,9,"P",0,0,1052,1
"120",8,5,41574,10,"P",0,0,679,1
"121",8,5,41574,11,"P",0,0,939,1
"122",8,5,41574,12,"P",0,0,838,1
"123",8,5,41574,14,"M",1,0,774,1
"124",8,5,41574,15,"M",1,0,717,1
"125",8,5,41574,17,"M",0,0,910,1
"126",8,5,41574,18,"M",0,0,830,1
"127",8,5,41574,19,"P",0,1,981,1
"128",8,5,41574,20,"P",0,0,903,1
"129",8,5,41574,21,"P",0,0,797,1
"130",8,5,41574,22,"P",1,0,821,1
"131",8,5,41574,23,"P",0,0,858,1
"132",8,5,41574,25,"P",1,0,690,1
"133",8,5,41574,26,"M",0,1,1051,1
"134",8,5,41574,27,"M",0,0,808,1
"135",8,5,41574,28,"M",0,0,701,1
"136",8,5,41574,29,"M",0,0,778,1
"137",8,5,41574,30,"M",0,0,841,1
"138",8,5,41574,31,"M",0,0,756,1
"139",8,5,41574,32,"P",0,1,921,0
"140",8,5,41574,33,"P",0,0,884,1
"141",8,5,41574,34,"P",0,0,895,1
"142",8,5,41574,35,"P",1,0,756,1
"143",8,5,41574,37,"P",0,0,749,1
"144",8,5,41574,38,"P",0,0,950,1
"145",8,5,41574,39,"P",0,0,778,1
"146",8,5,41574,40,"M",1,1,809,1
"147",8,5,41574,41,"M",0,0,895,0
"148",8,5,41574,42,"M",1,0,1588,1
"149",8,5,41574,43,"M",0,0,1171,1
"150",8,5,41574,44,"M",0,0,716,1
"151",8,5,41574,45,"M",1,0,833,1
"152",8,5,41574,46,"P",0,1,1018,1
"153",8,5,41574,47,"P",0,0,920,1
"154",8,5,41574,48,"M",0,1,1209,1
"155",8,5,41574,49,"M",0,0,747,1
"156",8,5,41574,50,"M",0,0,920,1
"157",8,5,41574,51,"M",0,0,813,1
"158",8,5,41574,52,"M",1,0,775,1
"159",8,5,41574,53,"M",0,0,780,1
"160",8,5,41574,54,"M",0,0,914,1
"161",8,5,41574,55,"M",1,0,724,1
"162",8,5,41574,56,"P",1,1,778,1
"163",8,5,41574,57,"P",1,0,848,1
"164",8,5,41574,58,"P",1,0,724,1
"165",8,5,41574,59,"P",1,0,682,1
"166",8,5,41574,60,"M",0,1,878,1
"167",8,5,41574,61,"M",0,0,1235,0
"168",8,5,41574,62,"M",1,0,965,1
"169",8,5,41574,63,"M",0,0,930,1
"170",8,5,41461,1,"P",1,0,581,1
"171",8,5,41461,2,"P",1,0,699,1
"172",8,5,41461,3,"P",0,0,832,1
"173",8,5,41461,4,"M",1,1,982,1
"174",8,5,41461,5,"M",1,0,843,1
"175",8,5,41461,6,"P",0,1,949,1
"176",8,5,41461,7,"P",0,0,715,1
"177",8,5,41461,8,"M",1,1,1015,1
"178",8,5,41461,9,"M",0,0,925,0
"179",8,5,41461,10,"M",0,0,984,1
"180",8,5,41461,11,"P",1,1,893,1
"181",8,5,41461,12,"P",1,0,876,1
"182",8,5,41461,13,"P",1,0,838,1
"183",8,5,41461,15,"M",0,1,1014,1
"184",8,5,41461,16,"M",0,0,1102,1
"185",8,5,41461,17,"M",1,0,833,1
"186",8,5,41461,18,"P",1,1,936,1
"187",8,5,41461,20,"P",1,0,830,1
"188",8,5,41461,21,"P",1,0,861,1
"189",8,5,41461,22,"P",1,0,741,1
"190",8,5,41461,23,"P",0,0,886,1
"191",8,5,41461,24,"P",0,0,889,1
"192",8,5,41461,25,"P",0,0,1055,1
"193",8,5,41461,26,"P",0,0,807,1
"194",8,5,41461,27,"M",0,1,1008,1
"195",8,5,41461,28,"M",0,0,880,1
"196",8,5,41461,29,"M",1,0,707,1
"197",8,5,41461,30,"M",1,0,706,1
"198",8,5,41461,31,"M",1,0,839,1
"199",8,5,41461,32,"P",1,1,942,1
"200",8,5,41461,33,"P",0,0,806,0
"201",8,5,41461,34,"P",1,0,858,1
"202",8,5,41461,35,"P",0,0,984,1
"203",8,5,41461,36,"M",1,1,1164,1
"204",8,5,41461,37,"M",1,0,850,1
"205",8,5,41461,38,"M",0,0,851,1
"206",8,5,41461,40,"M",1,0,864,1
"207",8,5,41461,41,"P",1,1,979,1
"208",8,5,41461,42,"P",1,0,778,1
"209",8,5,41461,43,"P",1,0,709,1
"210",8,5,41461,45,"P",0,0,742,1
"211",8,5,41461,46,"M",1,1,846,1
"212",8,5,41461,47,"M",1,0,707,1
"213",8,5,41461,48,"M",0,0,908,1
"214",8,5,41461,49,"M",1,0,812,1
"215",8,5,41461,50,"M",0,0,816,1
"216",8,5,41461,51,"P",0,1,1027,1
"217",8,5,41461,52,"P",1,0,756,1
"218",8,5,41461,54,"M",1,1,1010,1
"219",8,5,41461,55,"M",1,0,733,1
"220",8,5,41461,56,"M",0,0,892,0
"221",8,5,41461,57,"M",1,0,1398,0
"222",8,5,41461,58,"M",1,0,1094,1
"223",8,5,41461,59,"M",1,0,1023,1
"224",8,5,41461,60,"P",0,1,1000,0
"225",8,5,41461,61,"P",0,0,844,0
"226",8,5,41461,62,"P",0,0,1256,1
"227",8,5,41461,63,"P",1,0,871,1
"228",8,5,41461,64,"P",1,0,838,1
"229",8,5,41461,65,"P",0,0,899,1
"230",8,5,41462,1,"P",1,0,445,1
"231",8,5,41462,2,"M",0,1,1027,1
"232",8,5,41462,3,"M",0,0,683,1
"233",8,5,41462,4,"M",1,0,831,1
"234",8,5,41462,5,"M",0,0,1015,1
"235",8,5,41462,6,"M",0,0,844,1
"236",8,5,41462,7,"P",1,1,847,1
"237",8,5,41462,8,"P",0,0,867,1
"238",8,5,41462,9,"P",0,0,823,1
"239",8,5,41462,10,"P",0,0,689,1
"240",8,5,41462,11,"P",0,0,929,1
"241",8,5,41462,12,"M",0,1,1348,1
"242",8,5,41462,14,"P",1,1,862,1
"243",8,5,41462,15,"P",0,0,770,1
"244",8,5,41462,16,"P",0,0,754,1
"245",8,5,41462,17,"P",1,0,878,1
"246",8,5,41462,18,"M",1,1,1093,1
"247",8,5,41462,19,"M",1,0,804,1
"248",8,5,41462,20,"M",0,0,1027,1
"249",8,5,41462,21,"M",0,0,923,1
"250",8,5,41462,22,"M",0,0,909,1
"251",8,5,41462,23,"M",1,0,797,1
"252",8,5,41462,24,"M",1,0,936,1
"253",8,5,41462,25,"M",0,0,1115,1
"254",8,5,41462,26,"M",0,0,929,1
"255",8,5,41462,28,"M",1,0,826,1
"256",8,5,41462,29,"M",0,0,1118,1
"257",8,5,41462,30,"M",0,0,910,1
"258",8,5,41462,31,"M",1,0,766,1
"259",8,5,41462,32,"M",0,0,858,1
"260",8,5,41462,33,"M",0,0,902,1
"261",8,5,41462,34,"M",1,0,786,1
"262",8,5,41462,35,"P",1,1,1059,1
"263",8,5,41462,36,"P",0,0,907,1
"264",8,5,41462,37,"P",0,0,920,1
"265",8,5,41462,38,"M",1,1,1055,1
"266",8,5,41462,39,"M",0,0,1002,1
"267",8,5,41462,40,"M",1,0,1041,1
"268",8,5,41462,41,"P",0,1,914,1
"269",8,5,41462,42,"P",1,0,778,1
"270",8,5,41462,43,"P",1,0,744,1
"271",8,5,41462,44,"P",0,0,948,1
"272",8,5,41462,45,"P",1,0,838,1
"273",8,5,41462,46,"P",1,0,758,1
"274",8,5,41462,47,"P",0,0,841,1
"275",8,5,41462,48,"P",1,0,886,1
"276",8,5,41462,49,"P",1,0,733,1
"277",8,5,41462,50,"M",0,1,1237,1
"278",8,5,41462,51,"M",0,0,871,1
"279",8,5,41462,52,"M",0,0,738,1
"280",8,5,41462,53,"M",0,0,992,1
"281",8,5,41462,54,"M",0,0,885,1
"282",8,5,41462,55,"M",1,0,846,1
"283",8,5,41462,56,"P",1,1,865,1
"284",8,5,41462,57,"P",1,0,878,1
"285",8,5,41462,58,"P",0,0,810,1
"286",8,5,41462,59,"P",0,0,892,1
"287",8,5,41462,60,"M",1,1,921,1
"288",8,5,41462,61,"M",0,0,1314,1
"289",8,5,41462,62,"M",0,0,1061,1
"290",8,5,41462,63,"M",1,0,895,1
"291",8,5,41462,65,"M",0,0,1005,0
"292",8,5,41573,1,"P",1,0,393,1
"293",8,5,41573,2,"P",1,0,681,1
"294",8,5,41573,3,"P",1,0,745,1
"295",8,5,41573,4,"P",0,0,870,1
"296",8,5,41573,5,"P",1,0,857,1
"297",8,5,41573,6,"P",1,0,708,1
"298",8,5,41573,7,"P",0,0,791,0
"299",8,5,41573,9,"P",0,0,663,1
"300",8,5,41573,10,"M",0,1,865,1
"301",8,5,41573,11,"M",1,0,729,1
"302",8,5,41573,12,"M",0,0,726,1
"303",8,5,41573,13,"M",0,0,1035,1
"304",8,5,41573,14,"M",0,0,856,1
"305",8,5,41573,15,"M",0,0,748,1
"306",8,5,41573,16,"M",0,0,700,1
"307",8,5,41573,17,"M",1,0,766,1
"308",8,5,41573,18,"M",1,0,749,1
"309",8,5,41573,19,"M",0,0,880,1
"310",8,5,41573,20,"P",0,1,1075,1
"311",8,5,41573,21,"P",1,0,717,1
"312",8,5,41573,22,"P",1,0,633,1
"313",8,5,41573,23,"P",0,0,911,0
"314",8,5,41573,24,"P",0,0,1015,1
"315",8,5,41573,25,"M",0,1,1206,1
"316",8,5,41573,26,"M",0,0,909,1
"317",8,5,41573,27,"M",0,0,800,1
"318",8,5,41573,28,"P",1,1,820,1
"319",8,5,41573,29,"P",0,0,708,1
"320",8,5,41573,30,"P",0,0,779,1
"321",8,5,41573,31,"P",0,0,818,1
"322",8,5,41573,32,"P",0,0,791,1
"323",8,5,41573,33,"P",0,0,725,1
"324",8,5,41573,34,"P",1,0,777,1
"325",8,5,41573,35,"P",1,0,792,1
"326",8,5,41573,36,"P",0,0,688,1
"327",8,5,41573,37,"M",0,1,1225,1
"328",8,5,41573,38,"M",1,0,682,1
"329",8,5,41573,39,"M",1,0,797,1
"330",8,5,41573,40,"M",0,0,795,1
"331",8,5,41573,41,"M",1,0,799,1
"332",8,5,41573,42,"M",0,0,766,1
"333",8,5,41573,43,"M",0,0,744,1
"334",8,5,41573,44,"M",1,0,791,1
"335",8,5,41573,45,"M",0,0,836,1
"336",8,5,41573,46,"M",1,0,790,1
"337",8,5,41573,47,"P",1,1,828,1
"338",8,5,41573,48,"M",0,1,1059,1
"339",8,5,41573,49,"M",1,0,802,1
"340",8,5,41573,51,"M",0,0,1495,1
"341",8,5,41573,52,"M",1,0,1881,1
"342",8,5,41573,53,"P",1,1,951,1
"343",8,5,41573,54,"P",0,0,957,1
"344",8,5,41573,55,"P",0,0,944,1
"345",8,5,41573,56,"P",0,0,1523,1
"346",8,5,41573,57,"P",1,0,786,1
"347",8,5,41573,58,"P",1,0,839,1
"348",8,5,41573,59,"M",1,1,809,1
"349",8,5,41573,60,"M",0,0,821,0
"350",8,5,41573,61,"M",1,0,855,1
"351",8,5,41573,62,"M",0,0,956,1
"352",8,5,41573,63,"M",0,0,732,1
"353",8,5,41573,64,"P",0,1,961,1
"354",8,5,41573,65,"P",1,0,780,1
"355",8,5,41573,66,"P",0,0,863,1
"356",8,5,41573,67,"P",1,0,764,1
"357",8,5,41573,68,"M",0,1,977,1
"358",8,5,44021,1,"P",1,0,684,1
"359",8,5,44021,2,"P",1,0,734,1
"360",8,5,44021,4,"M",1,1,1166,1
"361",8,5,44021,5,"M",1,0,706,1
"362",8,5,44021,6,"P",0,1,860,1
"363",8,5,44021,7,"P",0,0,611,1
"364",8,5,44021,8,"P",1,0,834,1
"365",8,5,44021,9,"M",0,1,953,1
"366",8,5,44021,10,"M",1,0,841,1
"367",8,5,44021,11,"P",1,1,702,1
"368",8,5,44021,12,"P",0,0,823,1
"369",8,5,44021,13,"P",1,0,704,1
"370",8,5,44021,14,"P",0,0,733,1
"371",8,5,44021,15,"P",1,0,798,1
"372",8,5,44021,16,"P",1,0,778,1
"373",8,5,44021,17,"P",1,0,774,1
"374",8,5,44021,18,"P",0,0,836,1
"375",8,5,44021,19,"M",0,1,1179,1
"376",8,5,44021,20,"M",1,0,823,1
"377",8,5,44021,21,"M",1,0,850,1
"378",8,5,44021,22,"M",0,0,1001,1
"379",8,5,44021,23,"M",0,0,780,1
"380",8,5,44021,24,"M",1,0,774,1
"381",8,5,44021,25,"M",0,0,966,1
"382",8,5,44021,27,"P",0,1,1034,1
"383",8,5,44021,28,"P",1,0,764,1
"384",8,5,44021,29,"M",0,1,1007,1
"385",8,5,44021,30,"M",1,0,775,1
"386",8,5,44021,31,"M",0,0,813,1
"387",8,5,44021,33,"M",0,0,778,1
"388",8,5,44021,34,"M",0,0,951,1
"389",8,5,44021,36,"P",1,0,695,1
"390",8,5,44021,37,"P",1,0,814,1
"391",8,5,44021,38,"P",0,0,823,1
"392",8,5,44021,39,"P",1,0,836,1
"393",8,5,44021,40,"P",0,0,848,1
"394",8,5,44021,41,"P",0,0,924,0
"395",8,5,44021,42,"P",0,0,1028,1
"396",8,5,44021,43,"P",0,0,789,1
"397",8,5,44021,44,"M",1,1,940,1
"398",8,5,44021,45,"M",0,0,1051,1
"399",8,5,44021,46,"M",1,0,731,1
"400",8,5,44021,47,"M",1,0,801,1
"401",8,5,44021,48,"P",0,1,1123,1
"402",8,5,44021,49,"P",1,0,793,1
"403",8,5,44021,50,"P",1,0,833,1
"404",8,5,44021,51,"P",1,0,767,1
"405",8,5,44021,52,"P",1,0,717,1
"406",8,5,44021,53,"P",0,0,1005,1
"407",8,5,44021,56,"M",1,0,740,1
"408",8,5,44021,57,"M",0,0,747,1
"409",8,5,44021,58,"M",0,0,818,1
"410",8,5,44021,59,"M",0,0,768,1
"411",8,5,44021,60,"M",0,0,812,1
"412",8,5,44021,61,"M",0,0,768,1
"413",8,5,44021,62,"P",0,1,1416,1
"414",8,5,44021,63,"P",1,0,804,1
"415",8,5,44021,64,"P",0,0,916,1
"416",8,5,44021,65,"M",1,1,1090,0
"417",8,5,44021,67,"M",1,0,748,1
"418",8,5,44021,68,"M",1,0,720,1
"419",8,5,44021,69,"M",0,0,958,1
"420",8,5,46475,1,"P",1,0,525,1
"421",8,5,46475,2,"P",1,0,631,1
"422",8,5,46475,3,"P",1,0,743,1
"423",8,5,46475,4,"M",0,1,1077,1
"424",8,5,46475,5,"M",1,0,793,1
"425",8,5,46475,6,"M",1,0,644,1
"426",8,5,46475,7,"M",0,0,854,1
"427",8,5,46475,8,"M",0,0,943,1
"428",8,5,46475,9,"M",0,0,749,1
"429",8,5,46475,10,"P",1,1,916,1
"430",8,5,46475,11,"P",0,0,786,1
"431",8,5,46475,12,"M",0,1,1128,1
"432",8,5,46475,13,"M",1,0,734,1
"433",8,5,46475,14,"M",1,0,703,1
"434",8,5,46475,15,"M",0,0,729,1
"435",8,5,46475,16,"M",0,0,752,1
"436",8,5,46475,17,"M",1,0,693,1
"437",8,5,46475,18,"M",1,0,736,1
"438",8,5,46475,19,"P",0,1,853,0
"439",8,5,46475,21,"P",0,0,837,1
"440",8,5,46475,22,"P",0,0,1002,1
"441",8,5,46475,23,"M",1,1,813,1
"442",8,5,46475,24,"M",1,0,946,1
"443",8,5,46475,25,"M",0,0,847,1
"444",8,5,46475,26,"M",1,0,670,1
"445",8,5,46475,27,"M",1,0,749,1
"446",8,5,46475,28,"M",1,0,696,1
"447",8,5,46475,29,"P",0,1,1074,1
"448",8,5,46475,30,"P",0,0,816,1
"449",8,5,46475,31,"M",0,1,1904,1
"450",8,5,46475,32,"M",1,0,833,1
"451",8,5,46475,33,"M",1,0,713,1
"452",8,5,46475,35,"P",0,1,984,1
"453",8,5,46475,36,"P",0,0,813,1
"454",8,5,46475,38,"P",1,0,748,1
"455",8,5,46475,39,"P",1,0,735,1
"456",8,5,46475,40,"P",0,0,978,1
"457",8,5,46475,41,"P",0,0,945,1
"458",8,5,46475,42,"P",1,0,848,1
"459",8,5,46475,43,"M",0,1,1082,1
"460",8,5,46475,44,"M",0,0,748,1
"461",8,5,46475,45,"M",0,0,783,1
"462",8,5,46475,46,"M",1,0,791,1
"463",8,5,46475,47,"M",1,0,711,1
"464",8,5,46475,48,"M",1,0,721,1
"465",8,5,46475,49,"M",1,0,794,1
"466",8,5,46475,50,"P",0,1,952,1
"467",8,5,46475,51,"P",1,0,788,1
"468",8,5,46475,52,"P",1,0,769,1
"469",8,5,46475,53,"P",0,0,915,1
"470",8,5,46475,54,"P",1,0,962,1
"471",8,5,46475,55,"P",0,0,819,1
"472",8,5,46475,56,"P",1,0,758,1
"473",8,5,46475,57,"M",0,1,850,1
"474",8,5,46475,58,"M",0,0,891,1
"475",8,5,46475,59,"M",0,0,1158,1
"476",8,5,46475,60,"M",0,0,853,1
"477",8,5,46475,61,"P",0,1,1012,1
"478",8,5,46475,62,"P",0,0,641,1
"479",8,5,46475,63,"P",1,0,819,1
"480",8,5,46475,64,"P",0,0,896,1
"481",8,5,46475,65,"M",1,1,917,1
"482",8,5,46475,66,"M",1,0,942,1
"483",8,5,46475,67,"M",1,0,663,1
"484",8,5,46475,68,"M",1,0,741,1
"485",8,5,46475,69,"P",0,1,1129,1
"486",8,5,46474,1,"P",1,0,469,1
"487",8,5,46474,2,"P",1,0,655,1
"488",8,5,46474,3,"P",1,0,791,1
"489",8,5,46474,4,"P",0,0,842,1
"490",8,5,46474,5,"P",0,0,709,1
"491",8,5,46474,6,"P",0,0,850,1
"492",8,5,46474,7,"P",1,0,796,1
"493",8,5,46474,8,"P",1,0,739,1
"494",8,5,46474,9,"M",0,1,909,1
"495",8,5,46474,10,"M",1,0,842,1
"496",8,5,46474,11,"M",0,0,772,1
"497",8,5,46474,12,"M",1,0,754,1
"498",8,5,46474,13,"M",0,0,782,1
"499",8,5,46474,14,"M",1,0,863,1
"500",8,5,46474,15,"M",0,0,852,0
"501",8,5,46474,16,"P",0,1,1442,1
"502",8,5,46474,17,"P",1,0,827,1
"503",8,5,46474,18,"P",0,0,825,1
"504",8,5,46474,19,"P",0,0,818,1
"505",8,5,46474,20,"P",0,0,784,1
"506",8,5,46474,21,"M",1,1,948,1
"507",8,5,46474,22,"M",0,0,909,1
"508",8,5,46474,23,"M",0,0,790,1
"509",8,5,46474,24,"M",1,0,788,1
"510",8,5,46474,25,"M",0,0,923,1
"511",8,5,46474,26,"M",0,0,729,1
"512",8,5,46474,27,"M",1,0,789,1
"513",8,5,46474,28,"M",0,0,779,1
"514",8,5,46474,29,"P",0,1,1050,1
"515",8,5,46474,30,"P",0,0,923,1
"516",8,5,46474,31,"P",0,0,852,1
"517",8,5,46474,32,"P",1,0,818,1
"518",8,5,46474,33,"P",0,0,815,1
"519",8,5,46474,34,"P",1,0,845,1
"520",8,5,46474,35,"M",0,1,1188,1
"521",8,5,46474,36,"M",0,0,720,1
"522",8,5,46474,37,"M",0,0,864,1
"523",8,5,46474,38,"M",1,0,674,1
"524",8,5,46474,39,"M",0,0,1050,1
"525",8,5,46474,40,"M",0,0,819,1
"526",8,5,46474,41,"P",0,1,1043,1
"527",8,5,46474,42,"P",1,0,761,1
"528",8,5,46474,43,"P",1,0,770,1
"529",8,5,46474,44,"P",1,0,751,1
"530",8,5,46474,45,"M",0,1,1338,0
"531",8,5,46474,46,"M",1,0,1575,1
"532",8,5,46474,47,"P",1,1,942,1
"533",8,5,46474,48,"P",0,0,870,1
"534",8,5,46474,49,"P",1,0,788,1
"535",8,5,46474,51,"M",0,0,1076,1
"536",8,5,46474,52,"M",1,0,742,1
"537",8,5,46474,53,"M",1,0,692,1
"538",8,5,46474,54,"M",1,0,730,1
"539",8,5,46474,55,"M",1,0,687,1
"540",8,5,46474,56,"P",1,1,823,1
"541",8,5,46474,57,"P",1,0,786,1
"542",8,5,46474,58,"P",0,0,823,1
"543",8,5,46474,59,"P",1,0,756,1
"544",8,5,46474,60,"P",0,0,832,1
"545",8,5,46474,61,"P",1,0,836,1
"546",8,5,46474,62,"M",0,1,944,1
"547",8,5,46474,63,"M",0,0,820,1
"548",8,5,46474,64,"M",1,0,773,1
"549",8,5,46474,65,"M",1,0,816,1
"550",8,5,46474,66,"M",1,0,802,1
"551",8,5,46474,67,"P",1,1,836,1
"552",8,5,46474,68,"P",0,0,764,1
"553",8,5,41788,1,"P",1,0,526,1
"554",8,5,41788,2,"P",1,0,682,1
"555",8,5,41788,3,"P",1,0,751,1
"556",8,5,41788,4,"P",0,0,903,1
"557",8,5,41788,5,"P",1,0,792,1
"558",8,5,41788,6,"P",1,0,783,1
"559",8,5,41788,7,"P",1,0,756,1
"560",8,5,41788,8,"P",0,0,766,1
"561",8,5,41788,9,"P",1,0,883,1
"562",8,5,41788,10,"M",1,1,938,1
"563",8,5,41788,11,"M",0,0,867,1
"564",8,5,41788,12,"M",1,0,839,1
"565",8,5,41788,13,"M",0,0,789,1
"566",8,5,41788,14,"M",0,0,849,1
"567",8,5,41788,15,"M",1,0,772,1
"568",8,5,41788,16,"M",1,0,868,1
"569",8,5,41788,17,"M",0,0,815,1
"570",8,5,41788,18,"M",1,0,783,1
"571",8,5,41788,19,"M",1,0,835,1
"572",8,5,41788,20,"P",0,1,1170,1
"573",8,5,41788,21,"P",1,0,790,1
"574",8,5,41788,22,"P",1,0,685,1
"575",8,5,41788,23,"M",1,1,1079,1
"576",8,5,41788,24,"M",0,0,777,1
"577",8,5,41788,26,"M",1,0,746,1
"578",8,5,41788,27,"P",0,1,1022,1
"579",8,5,41788,28,"P",1,0,722,1
"580",8,5,41788,29,"M",1,1,990,1
"581",8,5,41788,30,"M",1,0,836,1
"582",8,5,41788,31,"M",0,0,996,1
"583",8,5,41788,32,"M",1,0,890,1
"584",8,5,41788,33,"M",1,0,786,1
"585",8,5,41788,34,"P",1,1,833,1
"586",8,5,41788,35,"P",0,0,826,1
"587",8,5,41788,36,"P",0,0,1047,1
"588",8,5,41788,37,"M",0,1,1343,1
"589",8,5,41788,38,"M",1,0,767,1
"590",8,5,41788,39,"M",1,0,825,1
"591",8,5,41788,40,"M",0,0,888,1
"592",8,5,41788,41,"M",1,0,792,1
"593",8,5,41788,42,"M",1,0,797,1
"594",8,5,41788,43,"P",1,1,867,1
"595",8,5,41788,44,"P",1,0,930,1
"596",8,5,41788,45,"P",1,0,784,1
"597",8,5,41788,46,"P",1,0,762,1
"598",8,5,41788,47,"P",0,0,757,1
"599",8,5,41788,48,"P",0,0,834,1
"600",8,5,41788,49,"M",1,1,891,1
"601",8,5,41788,50,"M",0,0,770,1
"602",8,5,41788,51,"M",1,0,752,1
"603",8,5,41788,52,"P",1,1,904,1
"604",8,5,41788,53,"P",1,0,731,1
"605",8,5,41788,54,"P",1,0,790,1
"606",8,5,41788,55,"P",1,0,836,1
"607",8,5,41788,56,"P",0,0,762,1
"608",8,5,41788,57,"M",1,1,952,1
"609",8,5,41788,58,"M",1,0,878,1
"610",8,5,41788,59,"P",0,1,946,1
"611",8,5,41788,60,"P",0,0,814,1
"612",8,5,41788,61,"P",1,0,807,1
"613",8,5,41788,62,"P",1,0,809,1
"614",8,5,41788,63,"P",1,0,835,1
"615",8,5,41788,64,"M",1,1,923,1
"616",8,5,41788,65,"M",1,0,698,1
"617",8,5,41788,66,"M",0,0,831,1
"618",8,5,41788,67,"M",1,0,861,1
"619",8,5,41788,68,"P",1,1,812,1
"620",8,5,41788,69,"P",1,0,798,1
"621",8,5,41788,70,"P",1,0,918,1
"622",8,5,44393,1,"P",1,0,281,1
"623",8,5,44393,2,"P",0,0,536,1
"624",8,5,44393,3,"P",1,0,596,1
"625",8,5,44393,4,"P",1,0,780,1
"626",8,5,44393,5,"P",1,0,761,0
"627",8,5,44393,6,"M",1,1,1138,1
"628",8,5,44393,7,"M",1,0,670,1
"629",8,5,44393,8,"M",1,0,753,1
"630",8,5,44393,9,"M",0,0,770,1
"631",8,5,44393,10,"M",1,0,715,1
"632",8,5,44393,11,"M",1,0,747,1
"633",8,5,44393,12,"P",0,1,1120,1
"634",8,5,44393,13,"P",1,0,848,1
"635",8,5,44393,14,"P",0,0,728,1
"636",8,5,44393,15,"P",0,0,796,1
"637",8,5,44393,16,"P",1,0,768,1
"638",8,5,44393,17,"M",0,1,1056,1
"639",8,5,44393,18,"M",0,0,784,1
"640",8,5,44393,19,"M",0,0,787,1
"641",8,5,44393,20,"M",1,0,765,1
"642",8,5,44393,21,"P",0,1,981,1
"643",8,5,44393,22,"P",1,0,647,1
"644",8,5,44393,23,"P",0,0,784,1
"645",8,5,44393,24,"M",0,1,1147,1
"646",8,5,44393,25,"M",0,0,1156,1
"647",8,5,44393,26,"M",0,0,728,1
"648",8,5,44393,27,"M",1,0,918,1
"649",8,5,44393,28,"M",1,0,748,1
"650",8,5,44393,29,"M",1,0,750,1
"651",8,5,44393,30,"P",1,1,768,1
"652",8,5,44393,31,"P",0,0,1190,1
"653",8,5,44393,32,"P",0,0,810,1
"654",8,5,44393,33,"P",0,0,750,1
"655",8,5,44393,34,"P",1,0,762,1
"656",8,5,44393,35,"P",0,0,844,1
"657",8,5,44393,36,"P",1,0,756,1
"658",8,5,44393,37,"P",0,0,781,1
"659",8,5,44393,38,"P",1,0,708,1
"660",8,5,44393,39,"M",0,1,1148,1
"661",8,5,44393,40,"M",0,0,793,1
"662",8,5,44393,41,"M",1,0,844,1
"663",8,5,44393,42,"M",1,0,801,1
"664",8,5,44393,44,"P",1,0,667,1
"665",8,5,44393,45,"P",0,0,825,1
"666",8,5,44393,46,"P",0,0,732,1
"667",8,5,44393,47,"M",1,1,1021,1
"668",8,5,44393,48,"M",1,0,789,1
"669",8,5,44393,49,"M",0,0,1372,1
"670",8,5,44393,50,"M",0,0,950,1
"671",8,5,44393,51,"M",1,0,827,1
"672",8,5,44393,52,"M",0,0,995,1
"673",8,5,44393,53,"M",0,0,783,1
"674",8,5,44393,54,"M",1,0,786,1
"675",8,5,44393,55,"P",0,1,1024,1
"676",8,5,44393,56,"P",0,0,720,1
"677",8,5,44393,57,"P",1,0,891,1
"678",8,5,44393,58,"P",1,0,748,1
"679",8,5,44393,59,"P",1,0,728,1
"680",8,5,44393,60,"M",0,1,1080,1
"681",8,5,44393,61,"M",1,0,724,1
"682",8,5,44393,62,"M",1,0,878,1
"683",8,5,44393,63,"M",1,0,833,1
"684",8,5,44393,64,"M",1,0,750,1
"685",8,5,44393,65,"M",0,0,1204,1
"686",8,5,44393,66,"P",0,1,1100,1
"687",8,5,44393,67,"P",1,0,788,1
"688",8,5,44393,68,"P",0,0,721,1
"689",8,5,44393,69,"M",1,1,1311,1
"690",8,5,44495,1,"P",1,0,354,1
"691",8,5,44495,2,"P",1,0,616,1
"692",8,5,44495,3,"P",0,0,727,0
"693",8,5,44495,4,"P",0,0,860,1
"694",8,5,44495,5,"P",0,0,808,1
"695",8,5,44495,6,"M",1,1,850,1
"696",8,5,44495,7,"P",1,1,1085,1
"697",8,5,44495,8,"P",1,0,639,1
"698",8,5,44495,9,"P",0,0,811,1
"699",8,5,44495,10,"P",0,0,794,1
"700",8,5,44495,11,"P",0,0,783,1
"701",8,5,44495,12,"P",0,0,781,1
"702",8,5,44495,13,"P",1,0,858,1
"703",8,5,44495,14,"P",1,0,686,1
"704",8,5,44495,15,"M",0,1,1164,1
"705",8,5,44495,16,"M",1,0,701,1
"706",8,5,44495,17,"P",0,1,823,1
"707",8,5,44495,18,"P",1,0,802,1
"708",8,5,44495,19,"P",1,0,778,1
"709",8,5,44495,20,"P",0,0,766,1
"710",8,5,44495,21,"P",1,0,763,1
"711",8,5,44495,22,"P",1,0,878,1
"712",8,5,44495,23,"M",1,1,880,1
"713",8,5,44495,24,"M",1,0,824,1
"714",8,5,44495,25,"M",0,0,773,1
"715",8,5,44495,26,"M",0,0,732,1
"716",8,5,44495,27,"P",1,1,841,1
"717",8,5,44495,28,"P",1,0,699,1
"718",8,5,44495,29,"P",0,0,743,1
"719",8,5,44495,30,"P",1,0,771,1
"720",8,5,44495,31,"M",0,1,846,1
"721",8,5,44495,32,"M",1,0,720,1
"722",8,5,44495,33,"M",0,0,728,1
"723",8,5,44495,34,"M",0,0,806,1
"724",8,5,44495,35,"M",1,0,758,1
"725",8,5,44495,36,"M",1,0,756,1
"726",8,5,44495,37,"M",1,0,690,1
"727",8,5,44495,38,"M",1,0,809,1
"728",8,5,44495,39,"P",1,1,757,1
"729",8,5,44495,40,"P",0,0,1005,1
"730",8,5,44495,41,"P",0,0,830,1
"731",8,5,44495,42,"P",0,0,1018,1
"732",8,5,44495,43,"P",1,0,727,1
"733",8,5,44495,44,"P",1,0,637,1
"734",8,5,44495,45,"P",0,0,892,1
"735",8,5,44495,46,"M",0,1,963,1
"736",8,5,44495,47,"M",1,0,741,1
"737",8,5,44495,48,"P",0,1,823,1
"738",8,5,44495,49,"P",1,0,786,1
"739",8,5,44495,50,"P",0,0,672,1
"740",8,5,44495,51,"P",0,0,799,1
"741",8,5,44495,52,"M",1,1,930,1
"742",8,5,44495,53,"P",0,1,842,1
"743",8,5,44495,54,"P",1,0,866,1
"744",8,5,44495,55,"P",0,0,892,1
"745",8,5,44495,56,"P",0,0,846,1
"746",8,5,44495,57,"P",1,0,717,1
"747",8,5,44495,58,"M",0,1,1028,1
"748",8,5,44495,59,"M",0,0,827,1
"749",8,5,44495,61,"P",1,1,847,1
"750",8,5,44495,62,"P",1,0,778,0
"751",8,5,44495,63,"P",1,0,830,1
"752",8,5,44495,64,"P",0,0,917,1
"753",8,5,44495,65,"P",1,0,763,1
"754",8,5,44495,66,"M",0,1,1126,1
"755",8,5,44495,67,"M",1,0,734,1
"756",8,5,44495,68,"M",0,0,782,1
"757",8,5,44495,69,"M",0,0,765,1
"758",8,5,44495,70,"M",1,0,735,1
"759",8,5,44495,72,"M",1,0,701,1
"760",8,5,44495,73,"M",1,0,820,1
"761",8,5,46896,2,"P",1,0,846,1
"762",8,5,46896,3,"P",1,0,1113,1
"763",8,5,46896,4,"M",0,1,552,0
"764",8,5,46896,5,"M",1,0,1004,1
"765",8,5,46896,6,"P",1,1,860,1
"766",8,5,46896,7,"P",0,0,919,1
"767",8,5,46896,8,"P",0,0,776,1
"768",8,5,46896,9,"P",1,0,755,1
"769",8,5,46896,10,"P",0,0,936,1
"770",8,5,46896,11,"M",0,1,987,1
"771",8,5,46896,12,"M",1,0,781,1
"772",8,5,46896,13,"P",1,1,766,1
"773",8,5,46896,14,"P",1,0,813,1
"774",8,5,46896,15,"P",0,0,1028,1
"775",8,5,46896,16,"P",1,0,770,1
"776",8,5,46896,17,"P",1,0,761,1
"777",8,5,46896,18,"P",1,0,724,1
"778",8,5,46896,19,"P",1,0,821,1
"779",8,5,46896,20,"P",0,0,693,1
"780",8,5,46896,21,"P",1,0,743,1
"781",8,5,46896,22,"M",0,1,917,1
"782",8,5,46896,24,"P",1,0,726,1
"783",8,5,46896,25,"P",1,0,713,1
"784",8,5,46896,26,"P",1,0,666,1
"785",8,5,46896,27,"P",1,0,653,1
"786",8,5,46896,28,"P",0,0,849,1
"787",8,5,46896,29,"P",1,0,759,1
"788",8,5,46896,30,"P",1,0,885,1
"789",8,5,46896,31,"P",1,0,600,1
"790",8,5,46896,32,"M",1,1,805,1
"791",8,5,46896,33,"P",0,1,723,0
"792",8,5,46896,34,"P",1,0,871,1
"793",8,5,46896,35,"P",1,0,760,1
"794",8,5,46896,36,"P",0,0,678,1
"795",8,5,46896,37,"P",1,0,854,1
"796",8,5,46896,38,"M",1,1,919,1
"797",8,5,46896,39,"M",1,0,692,1
"798",8,5,46896,40,"M",1,0,778,1
"799",8,5,46896,41,"M",0,0,761,1
"800",8,5,46896,42,"M",0,0,781,1
"801",8,5,46896,43,"M",1,0,813,1
"802",8,5,46896,44,"P",1,1,860,1
"803",8,5,46896,45,"P",0,0,749,1
"804",8,5,46896,46,"P",1,0,732,1
"805",8,5,46896,47,"P",0,0,815,1
"806",8,5,46896,48,"P",0,0,773,1
"807",8,5,46896,49,"P",0,0,827,1
"808",8,5,46896,50,"P",1,0,713,1
"809",8,5,46896,51,"M",1,1,931,0
"810",8,5,46896,52,"M",0,0,851,1
"811",8,5,46896,53,"M",0,0,1314,1
"812",8,5,46896,54,"M",1,0,789,1
"813",8,5,46896,55,"M",0,0,679,1
"814",8,5,46896,56,"M",1,0,620,1
"815",8,5,46896,57,"P",0,1,846,0
"816",8,5,46896,58,"P",0,0,1197,1
"817",8,5,46896,59,"M",1,1,1007,1
"818",8,5,46896,60,"M",1,0,717,1
"819",8,5,46896,61,"P",1,1,746,1
"820",8,5,46896,62,"P",0,0,938,1
"821",8,5,46896,63,"P",0,0,906,1
"822",8,5,46896,64,"P",0,0,1021,1
"823",8,5,46896,65,"M",0,1,980,1
"824",8,5,46896,66,"M",1,0,818,1
"825",8,5,46896,67,"P",1,1,765,1
"826",8,5,46896,68,"P",0,0,840,1
"827",8,5,46896,69,"P",1,0,824,1
"828",8,5,46896,70,"M",1,1,815,1
"829",8,5,39242,1,"P",1,0,905,1
"830",8,5,39242,2,"P",1,0,855,1
"831",8,5,39242,3,"P",1,0,696,1
"832",8,5,39242,4,"P",0,0,1371,1
"833",8,5,39242,5,"M",1,1,1277,1
"834",8,5,39242,6,"M",0,0,999,1
"835",8,5,39242,7,"M",1,0,935,1
"836",8,5,39242,8,"M",1,0,1242,1
"837",8,5,39242,9,"M",1,0,990,1
"838",8,5,39242,10,"P",1,1,931,0
"839",8,5,39242,11,"P",0,0,1807,1
"840",8,5,39242,12,"P",0,0,803,1
"841",8,5,39242,13,"P",1,0,898,1
"842",8,5,39242,14,"P",0,0,1027,1
"843",8,5,39242,15,"P",0,0,958,1
"844",8,5,39242,16,"P",1,0,849,1
"845",8,5,39242,17,"P",0,0,948,1
"846",8,5,39242,19,"M",1,0,1290,1
"847",8,5,39242,20,"M",0,0,1621,1
"848",8,5,39242,21,"M",1,0,1059,1
"849",8,5,39242,22,"M",1,0,971,1
"850",8,5,39242,23,"M",1,0,1070,1
"851",8,5,39242,24,"P",1,1,1145,1
"852",8,5,39242,25,"P",1,0,943,1
"853",8,5,39242,26,"P",0,0,1203,1
"854",8,5,39242,27,"P",0,0,972,1
"855",8,5,39242,29,"P",1,0,855,1
"856",8,5,39242,30,"P",1,0,924,1
"857",8,5,39242,31,"P",0,0,956,1
"858",8,5,39242,32,"P",1,0,898,1
"859",8,5,39242,33,"M",0,1,1116,1
"860",8,5,39242,34,"M",1,0,855,1
"861",8,5,39242,35,"M",0,0,1233,1
"862",8,5,39242,36,"M",0,0,1071,1
"863",8,5,39242,37,"M",1,0,1088,1
"864",8,5,39242,38,"P",1,1,983,1
"865",8,5,39242,39,"P",1,0,984,1
"866",8,5,39242,40,"P",0,0,906,1
"867",8,5,39242,41,"P",0,0,839,1
"868",8,5,39242,42,"P",0,0,975,1
"869",8,5,39242,43,"P",1,0,1061,1
"870",8,5,39242,44,"P",0,0,1035,1
"871",8,5,39242,45,"M",1,1,1145,1
"872",8,5,39242,46,"P",1,1,981,1
"873",8,5,39242,47,"P",1,0,956,1
"874",8,5,39242,48,"P",0,0,1239,1
"875",8,5,39242,49,"P",1,0,831,1
"876",8,5,39242,50,"P",1,0,811,1
"877",8,5,39242,51,"P",1,0,1064,1
"878",8,5,39242,52,"P",1,0,944,1
"879",8,5,39242,53,"P",1,0,865,1
"880",8,5,39242,54,"P",0,0,982,1
"881",8,5,39242,55,"P",0,0,982,1
"882",8,5,39242,56,"P",1,0,884,1
"883",8,5,39242,57,"M",1,1,1074,1
"884",8,5,46897,1,"P",1,0,396,1
"885",8,5,46897,2,"P",1,0,597,1
"886",8,5,46897,3,"P",1,0,732,1
"887",8,5,46897,4,"P",0,0,737,1
"888",8,5,46897,5,"P",1,0,899,1
"889",8,5,46897,7,"P",1,0,788,1
"890",8,5,46897,8,"P",0,0,789,1
"891",8,5,46897,9,"P",1,0,745,1
"892",8,5,46897,10,"M",1,1,842,1
"893",8,5,46897,11,"M",0,0,751,1
"894",8,5,46897,12,"M",1,0,666,1
"895",8,5,46897,13,"P",1,1,906,1
"896",8,5,46897,14,"P",0,0,794,1
"897",8,5,46897,15,"P",0,0,804,0
"898",8,5,46897,16,"M",0,1,930,0
"899",8,5,46897,17,"M",0,0,834,1
"900",8,5,46897,18,"M",1,0,739,1
"901",8,5,46897,19,"M",0,0,751,1
"902",8,5,46897,20,"P",1,1,764,1
"903",8,5,46897,21,"P",1,0,749,1
"904",8,5,46897,22,"P",1,0,782,1
"905",8,5,46897,23,"P",0,0,926,1
"906",8,5,46897,24,"P",0,0,814,1
"907",8,5,46897,25,"P",0,0,781,1
"908",8,5,46897,26,"M",0,1,913,1
"909",8,5,46897,27,"M",1,0,799,1
"910",8,5,46897,28,"M",1,0,783,1
"911",8,5,46897,29,"M",1,0,719,1
"912",8,5,46897,30,"M",0,0,628,0
"913",8,5,46897,31,"P",1,1,982,1
"914",8,5,46897,32,"P",1,0,749,1
"915",8,5,46897,33,"M",0,1,962,1
"916",8,5,46897,34,"M",0,0,761,1
"917",8,5,46897,35,"M",0,0,647,1
"918",8,5,46897,36,"M",1,0,793,1
"919",8,5,46897,37,"M",0,0,789,1
"920",8,5,46897,38,"M",1,0,745,1
"921",8,5,46897,39,"P",0,1,996,1
"922",8,5,46897,40,"P",0,0,914,1
"923",8,5,46897,42,"P",1,0,784,1
"924",8,5,46897,43,"P",1,0,816,1
"925",8,5,46897,44,"P",0,0,858,1
"926",8,5,46897,47,"M",0,0,648,1
"927",8,5,46897,48,"M",1,0,752,1
"928",8,5,46897,49,"M",1,0,1240,1
"929",8,5,46897,50,"M",0,0,902,1
"930",8,5,46897,51,"M",1,0,619,0
"931",8,5,46897,52,"M",0,0,921,1
"932",8,5,46897,53,"M",1,0,755,1
"933",8,5,46897,54,"P",0,1,1049,1
"934",8,5,46897,55,"P",1,0,695,1
"935",8,5,46897,56,"P",1,0,764,1
"936",8,5,46897,57,"M",1,1,1024,1
"937",8,5,46897,58,"M",0,0,814,1
"938",8,5,46897,59,"P",1,1,864,1
"939",8,5,46897,60,"P",0,0,826,1
"940",8,5,46897,61,"M",1,1,971,1
"941",8,5,46897,62,"M",1,0,650,1
"942",8,5,46897,63,"M",0,0,932,1
"943",8,5,46897,64,"M",0,0,819,1
"944",8,5,46897,65,"M",1,0,961,1
"945",8,5,46897,66,"M",1,0,775,1
"946",8,5,46897,68,"M",1,0,952,1
"947",8,5,46897,69,"M",1,0,978,1
"948",8,5,46897,70,"M",1,0,858,1
"949",8,5,46897,71,"P",0,1,865,1
"950",8,5,42020,1,"P",1,0,323,1
"951",8,5,42020,2,"P",0,0,875,1
"952",8,5,42020,3,"P",1,0,860,1
"953",8,5,42020,4,"P",0,0,856,1
"954",8,5,42020,5,"M",0,1,1034,1
"955",8,5,42020,6,"M",1,0,770,1
"956",8,5,42020,7,"M",1,0,838,1
"957",8,5,42020,8,"M",0,0,764,1
"958",8,5,42020,9,"M",0,0,746,1
"959",8,5,42020,10,"M",1,0,973,1
"960",8,5,42020,11,"M",0,0,867,1
"961",8,5,42020,12,"M",1,0,733,1
"962",8,5,42020,13,"P",0,1,972,1
"963",8,5,42020,14,"P",0,0,761,1
"964",8,5,42020,15,"P",0,0,738,1
"965",8,5,42020,16,"P",1,0,746,1
"966",8,5,42020,17,"P",0,0,841,0
"967",8,5,42020,18,"P",0,0,898,0
"968",8,5,42020,19,"P",1,0,1060,1
"969",8,5,42020,20,"P",1,0,735,1
"970",8,5,42020,21,"P",1,0,790,1
"971",8,5,42020,22,"P",0,0,1053,1
"972",8,5,42020,23,"M",1,1,980,1
"973",8,5,42020,24,"M",1,0,802,1
"974",8,5,42020,25,"M",1,0,778,1
"975",8,5,42020,26,"M",0,0,929,1
"976",8,5,42020,27,"M",1,0,783,1
"977",8,5,42020,28,"M",1,0,805,1
"978",8,5,42020,29,"M",0,0,877,1
"979",8,5,42020,30,"M",1,0,843,1
"980",8,5,42020,31,"M",1,0,776,1
"981",8,5,42020,32,"P",1,1,795,1
"982",8,5,42020,33,"P",0,0,885,1
"983",8,5,42020,34,"P",1,0,737,1
"984",8,5,42020,35,"P",1,0,796,1
"985",8,5,42020,36,"M",1,1,871,1
"986",8,5,42020,37,"M",1,0,811,1
"987",8,5,42020,38,"M",0,0,1038,1
"988",8,5,42020,39,"M",0,0,924,1
"989",8,5,42020,40,"M",0,0,881,1
"990",8,5,42020,41,"P",1,1,853,1
"991",8,5,42020,42,"P",1,0,786,1
"992",8,5,42020,43,"M",1,1,838,1
"993",8,5,42020,44,"M",1,0,840,1
"994",8,5,42020,45,"M",1,0,1015,1
"995",8,5,42020,46,"M",1,0,832,1
"996",8,5,42020,47,"M",0,0,967,1
"997",8,5,42020,48,"M",0,0,754,1
"998",8,5,42020,49,"P",1,1,871,1
"999",8,5,42020,50,"P",0,0,796,1
"1000",8,5,42020,51,"P",1,0,848,1
"1001",8,5,42020,53,"M",0,0,904,1
"1002",8,5,42020,54,"M",1,0,752,1
"1003",8,5,42020,55,"M",0,0,880,1
"1004",8,5,42020,56,"P",1,1,833,1
"1005",8,5,42020,57,"P",0,0,912,1
"1006",8,5,42020,58,"P",0,0,919,1
"1007",8,5,42020,59,"P",1,0,840,1
"1008",8,5,42020,60,"P",1,0,801,1
"1009",8,5,42020,61,"P",1,0,845,1
"1010",8,5,42020,62,"M",0,1,1008,1
"1011",8,5,42020,63,"M",0,0,1197,1
"1012",8,5,42020,64,"M",0,0,758,1
"1013",8,5,42020,65,"M",0,0,772,1
"1014",8,5,42020,66,"M",1,0,953,1
"1015",8,5,42020,67,"M",0,0,1026,1
"1016",8,5,42020,68,"P",1,1,1056,1
"1017",8,5,42019,1,"P",1,0,545,1
"1018",8,5,42019,2,"P",1,0,661,1
"1019",8,5,42019,3,"M",0,1,1092,1
"1020",8,5,42019,4,"M",1,0,965,1
"1021",8,5,42019,5,"M",0,0,817,1
"1022",8,5,42019,6,"P",0,1,906,1
"1023",8,5,42019,8,"P",1,0,774,1
"1024",8,5,42019,9,"P",1,0,769,1
"1025",8,5,42019,10,"M",1,1,1047,1
"1026",8,5,42019,11,"M",0,0,945,1
"1027",8,5,42019,12,"P",0,1,1043,1
"1028",8,5,42019,13,"P",1,0,794,1
"1029",8,5,42019,14,"P",1,0,710,1
"1030",8,5,42019,15,"P",1,0,667,1
"1031",8,5,42019,16,"P",0,0,708,0
"1032",8,5,42019,17,"P",0,0,990,1
"1033",8,5,42019,18,"P",1,0,748,1
"1034",8,5,42019,19,"M",1,1,1021,1
"1035",8,5,42019,20,"P",1,1,824,1
"1036",8,5,42019,21,"P",1,0,728,1
"1037",8,5,42019,22,"P",0,0,835,1
"1038",8,5,42019,23,"P",1,0,828,1
"1039",8,5,42019,24,"P",1,0,690,1
"1040",8,5,42019,25,"P",1,0,741,1
"1041",8,5,42019,26,"P",1,0,821,1
"1042",8,5,42019,27,"P",1,0,652,1
"1043",8,5,42019,28,"P",1,0,691,1
"1044",8,5,42019,29,"P",1,0,772,1
"1045",8,5,42019,30,"P",1,0,800,1
"1046",8,5,42019,31,"P",1,0,728,1
"1047",8,5,42019,32,"M",0,1,948,1
"1048",8,5,42019,33,"M",1,0,751,1
"1049",8,5,42019,34,"M",1,0,788,1
"1050",8,5,42019,35,"M",0,0,812,1
"1051",8,5,42019,36,"M",0,0,867,1
"1052",8,5,42019,37,"P",1,1,803,1
"1053",8,5,42019,39,"P",1,0,794,1
"1054",8,5,42019,40,"P",0,0,780,1
"1055",8,5,42019,41,"P",1,0,728,1
"1056",8,5,42019,42,"M",0,1,999,0
"1057",8,5,42019,43,"M",0,0,988,1
"1058",8,5,42019,44,"M",1,0,827,1
"1059",8,5,42019,45,"M",0,0,784,1
"1060",8,5,42019,46,"P",0,1,850,0
"1061",8,5,42019,47,"P",1,0,781,1
"1062",8,5,42019,48,"P",1,0,755,1
"1063",8,5,42019,49,"P",0,0,1089,1
"1064",8,5,42019,50,"P",1,0,752,1
"1065",8,5,42019,51,"P",1,0,795,0
"1066",8,5,42019,52,"P",1,0,863,1
"1067",8,5,42019,53,"M",1,1,821,1
"1068",8,5,42019,54,"M",1,0,791,1
"1069",8,5,42019,56,"M",0,0,907,1
"1070",8,5,42019,57,"M",0,0,1115,1
"1071",8,5,42019,58,"M",0,0,760,1
"1072",8,5,42019,59,"P",0,1,1030,1
"1073",8,5,42019,60,"P",1,0,818,1
"1074",8,5,42019,61,"P",1,0,705,1
"1075",8,5,42019,62,"P",0,0,921,1
"1076",8,5,42019,63,"P",0,0,849,1
"1077",8,5,42019,64,"P",0,0,1055,1
"1078",8,5,42019,65,"M",0,1,1075,1
"1079",8,5,42019,66,"M",0,0,894,1
"1080",8,5,42019,67,"M",1,0,761,1
"1081",8,5,42019,68,"M",1,0,752,1
"1082",8,5,42019,69,"M",0,0,949,1
"1083",8,5,42019,70,"M",0,0,1019,0
"1084",8,5,42023,1,"P",1,0,517,1
"1085",8,5,42023,2,"P",0,0,699,1
"1086",8,5,42023,4,"P",0,0,924,1
"1087",8,5,42023,5,"P",0,0,1177,1
"1088",8,5,42023,6,"P",1,0,744,1
"1089",8,5,42023,7,"M",1,1,1004,1
"1090",8,5,42023,8,"M",0,0,960,0
"1091",8,5,42023,9,"M",0,0,949,1
"1092",8,5,42023,10,"M",1,0,705,1
"1093",8,5,42023,11,"M",1,0,720,1
"1094",8,5,42023,12,"M",1,0,754,1
"1095",8,5,42023,13,"M",1,0,708,1
"1096",8,5,42023,14,"M",0,0,892,1
"1097",8,5,42023,15,"M",0,0,954,1
"1098",8,5,42023,16,"P",0,1,1213,1
"1099",8,5,42023,17,"P",1,0,847,1
"1100",8,5,42023,18,"P",0,0,886,1
"1101",8,5,42023,19,"M",0,1,875,1
"1102",8,5,42023,21,"P",0,1,978,1
"1103",8,5,42023,22,"P",0,0,853,1
"1104",8,5,42023,23,"P",1,0,791,1
"1105",8,5,42023,24,"P",1,0,706,1
"1106",8,5,42023,25,"P",1,0,754,1
"1107",8,5,42023,26,"M",0,1,911,0
"1108",8,5,42023,27,"M",0,0,1002,1
"1109",8,5,42023,28,"M",1,0,783,1
"1110",8,5,42023,29,"M",1,0,862,1
"1111",8,5,42023,30,"M",1,0,841,1
"1112",8,5,42023,31,"P",1,1,820,1
"1113",8,5,42023,32,"P",0,0,696,1
"1114",8,5,42023,33,"P",1,0,742,1
"1115",8,5,42023,34,"P",0,0,807,1
"1116",8,5,42023,35,"P",1,0,889,1
"1117",8,5,42023,36,"P",0,0,914,1
"1118",8,5,42023,37,"P",1,0,733,1
"1119",8,5,42023,38,"P",1,0,646,1
"1120",8,5,42023,39,"P",0,0,911,1
"1121",8,5,42023,40,"P",1,0,823,1
"1122",8,5,42023,41,"M",1,1,1071,1
"1123",8,5,42023,42,"P",1,1,812,1
"1124",8,5,42023,43,"P",1,0,917,1
"1125",8,5,42023,44,"P",0,0,849,1
"1126",8,5,42023,45,"P",1,0,849,1
"1127",8,5,42023,46,"P",0,0,886,1
"1128",8,5,42023,47,"P",1,0,1001,1
"1129",8,5,42023,48,"P",1,0,818,1
"1130",8,5,42023,49,"P",1,0,750,1
"1131",8,5,42023,50,"M",0,1,1083,1
"1132",8,5,42023,51,"M",0,0,730,1
"1133",8,5,42023,52,"M",0,0,878,1
"1134",8,5,42023,53,"M",0,0,768,1
"1135",8,5,42023,54,"P",0,1,1030,1
"1136",8,5,42023,55,"P",0,0,838,1
"1137",8,5,42023,56,"P",0,0,772,1
"1138",8,5,42023,57,"P",1,0,764,1
"1139",8,5,42023,58,"M",0,1,938,0
"1140",8,5,42023,59,"M",0,0,1781,1
"1141",8,5,42023,60,"M",1,0,744,1
"1142",8,5,42023,61,"M",1,0,668,1
"1143",8,5,42023,62,"M",1,0,820,1
"1144",8,5,42023,63,"M",1,0,811,1
"1145",8,5,42023,64,"M",1,0,820,1
"1146",8,5,42023,65,"P",1,1,836,1
"1147",8,5,42023,66,"P",1,0,699,1
"1148",8,5,42023,67,"P",0,0,807,1
"1149",8,5,42023,68,"P",1,0,759,1
"1150",8,5,42022,1,"P",1,0,476,1
"1151",8,5,42022,2,"P",0,0,792,1
"1152",8,5,42022,3,"P",1,0,695,1
"1153",8,5,42022,4,"P",0,0,869,1
"1154",8,5,42022,5,"M",0,1,1008,1
"1155",8,5,42022,6,"M",0,0,879,1
"1156",8,5,42022,7,"M",1,0,757,1
"1157",8,5,42022,8,"M",1,0,747,1
"1158",8,5,42022,9,"P",0,1,981,1
"1159",8,5,42022,10,"P",0,0,780,1
"1160",8,5,42022,12,"P",0,0,973,1
"1161",8,5,42022,13,"P",1,0,693,1
"1162",8,5,42022,14,"P",1,0,770,1
"1163",8,5,42022,15,"P",0,0,796,1
"1164",8,5,42022,16,"P",0,0,950,1
"1165",8,5,42022,17,"P",1,0,804,1
"1166",8,5,42022,18,"P",1,0,790,1
"1167",8,5,42022,19,"P",1,0,704,1
"1168",8,5,42022,20,"M",1,1,973,1
"1169",8,5,42022,21,"M",1,0,650,1
"1170",8,5,42022,22,"M",1,0,710,1
"1171",8,5,42022,23,"M",1,0,790,1
"1172",8,5,42022,24,"M",0,0,986,1
"1173",8,5,42022,25,"P",1,1,780,1
"1174",8,5,42022,26,"P",0,0,876,1
"1175",8,5,42022,27,"P",0,0,853,1
"1176",8,5,42022,28,"P",0,0,926,1
"1177",8,5,42022,29,"P",0,0,836,1
"1178",8,5,42022,30,"P",0,0,824,0
"1179",8,5,42022,31,"P",0,0,1137,0
"1180",8,5,42022,32,"P",1,0,958,1
"1181",8,5,42022,33,"P",1,0,736,1
"1182",8,5,42022,34,"M",0,1,977,1
"1183",8,5,42022,35,"M",0,0,845,1
"1184",8,5,42022,36,"M",0,0,888,1
"1185",8,5,42022,37,"M",1,0,861,1
"1186",8,5,42022,38,"M",1,0,744,1
"1187",8,5,42022,39,"M",1,0,817,1
"1188",8,5,42022,40,"M",1,0,1092,1
"1189",8,5,42022,41,"P",1,1,874,1
"1190",8,5,42022,42,"P",1,0,787,1
"1191",8,5,42022,43,"P",0,0,929,1
"1192",8,5,42022,44,"P",0,0,865,1
"1193",8,5,42022,45,"M",1,1,936,1
"1194",8,5,42022,46,"M",1,0,789,1
"1195",8,5,42022,47,"M",0,0,945,1
"1196",8,5,42022,48,"M",0,0,959,1
"1197",8,5,42022,49,"M",1,0,788,1
"1198",8,5,42022,50,"M",0,0,925,1
"1199",8,5,42022,51,"M",0,0,723,1
"1200",8,5,42022,52,"P",0,1,913,1
"1201",8,5,42022,53,"P",1,0,771,1
"1202",8,5,42022,54,"P",0,0,933,1
"1203",8,5,42022,55,"P",1,0,826,1
"1204",8,5,42022,56,"P",0,0,906,1
"1205",8,5,42022,58,"P",0,0,914,1
"1206",8,5,42022,59,"P",0,0,881,1
"1207",8,5,42022,60,"M",0,1,1124,0
"1208",8,5,42022,61,"M",1,0,1041,1
"1209",8,5,42022,62,"M",0,0,779,1
"1210",8,5,42022,63,"M",0,0,966,1
"1211",8,5,42022,64,"M",0,0,756,1
"1212",8,5,42022,65,"P",0,1,989,1
"1213",8,5,42022,66,"P",0,0,1056,1
"1214",8,5,42022,67,"P",0,0,918,1
"1215",8,5,42022,68,"P",0,0,885,1
"1216",8,5,44665,1,"P",1,0,459,1
"1217",8,5,44665,2,"P",1,0,813,1
"1218",8,5,44665,3,"P",1,0,748,1
"1219",8,5,44665,4,"P",0,0,727,1
"1220",8,5,44665,5,"P",0,0,833,1
"1221",8,5,44665,7,"M",1,1,1065,1
"1222",8,5,44665,8,"M",1,0,771,1
"1223",8,5,44665,9,"M",0,0,863,1
"1224",8,5,44665,10,"M",0,0,793,1
"1225",8,5,44665,11,"P",1,1,841,1
"1226",8,5,44665,12,"P",1,0,713,1
"1227",8,5,44665,13,"P",1,0,718,1
"1228",8,5,44665,15,"M",0,0,1020,1
"1229",8,5,44665,16,"M",1,0,731,1
"1230",8,5,44665,17,"M",0,0,852,1
"1231",8,5,44665,18,"M",1,0,812,1
"1232",8,5,44665,19,"M",0,0,748,1
"1233",8,5,44665,21,"M",0,0,752,1
"1234",8,5,44665,22,"P",1,1,861,1
"1235",8,5,44665,24,"P",0,0,862,1
"1236",8,5,44665,25,"P",1,0,799,1
"1237",8,5,44665,26,"M",0,1,1116,1
"1238",8,5,44665,27,"M",0,0,686,1
"1239",8,5,44665,28,"M",0,0,751,1
"1240",8,5,44665,29,"M",1,0,734,1
"1241",8,5,44665,30,"M",1,0,751,1
"1242",8,5,44665,31,"P",1,1,910,1
"1243",8,5,44665,33,"M",1,1,1275,1
"1244",8,5,44665,35,"P",0,0,943,1
"1245",8,5,44665,36,"P",1,0,979,1
"1246",8,5,44665,37,"P",1,0,702,1
"1247",8,5,44665,38,"P",1,0,732,1
"1248",8,5,44665,39,"P",1,0,767,1
"1249",8,5,44665,40,"P",1,0,1009,1
"1250",8,5,44665,41,"P",0,0,1080,1
"1251",8,5,44665,42,"M",0,1,880,1
"1252",8,5,44665,43,"M",1,0,756,1
"1253",8,5,44665,44,"M",0,0,766,1
"1254",8,5,44665,45,"P",0,1,808,0
"1255",8,5,44665,46,"P",0,0,1113,1
"1256",8,5,44665,47,"P",0,0,925,1
"1257",8,5,44665,48,"P",0,0,873,1
"1258",8,5,44665,50,"P",1,0,847,1
"1259",8,5,44665,51,"P",0,0,837,1
"1260",8,5,44665,52,"P",0,0,812,1
"1261",8,5,44665,53,"P",1,0,899,1
"1262",8,5,44665,54,"M",1,1,849,1
"1263",8,5,44665,55,"M",1,0,781,1
"1264",8,5,44665,56,"P",0,1,1091,1
"1265",8,5,44665,57,"P",0,0,1015,1
"1266",8,5,44665,58,"P",0,0,843,1
"1267",8,5,44665,59,"P",0,0,814,1
"1268",8,5,44665,60,"M",1,1,922,1
"1269",8,5,44665,61,"M",0,0,795,1
"1270",8,5,44665,62,"M",1,0,776,1
"1271",8,5,44665,63,"P",1,1,812,1
"1272",8,5,44665,64,"P",0,0,837,1
"1273",8,5,44665,65,"P",0,0,918,1
"1274",8,5,44665,66,"M",1,1,844,1
"1275",8,5,44665,67,"M",0,0,864,0
"1276",8,5,44665,68,"M",1,0,1485,1
"1277",8,5,42128,1,"P",1,0,290,1
"1278",8,5,42128,2,"M",1,1,648,1
"1279",8,5,42128,3,"M",1,0,858,1
"1280",8,5,42128,5,"M",1,0,802,1
"1281",8,5,42128,6,"M",1,0,770,1
"1282",8,5,42128,7,"M",0,0,964,1
"1283",8,5,42128,8,"M",1,0,812,1
"1284",8,5,42128,9,"P",1,1,897,1
"1285",8,5,42128,10,"P",0,0,874,1
"1286",8,5,42128,11,"P",0,0,818,1
"1287",8,5,42128,12,"P",0,0,855,1
"1288",8,5,42128,13,"M",1,1,1046,1
"1289",8,5,42128,14,"M",0,0,839,0
"1290",8,5,42128,15,"M",0,0,921,1
"1291",8,5,42128,16,"M",0,0,917,1
"1292",8,5,42128,17,"M",1,0,878,1
"1293",8,5,42128,19,"P",1,0,752,1
"1294",8,5,42128,20,"P",1,0,866,1
"1295",8,5,42128,21,"P",1,0,744,1
"1296",8,5,42128,22,"P",0,0,917,1
"1297",8,5,42128,23,"M",1,1,989,1
"1298",8,5,42128,24,"M",0,0,877,1
"1299",8,5,42128,25,"M",0,0,891,1
"1300",8,5,42128,26,"M",1,0,795,1
"1301",8,5,42128,27,"M",1,0,747,1
"1302",8,5,42128,28,"M",1,0,797,1
"1303",8,5,42128,29,"M",1,0,819,1
"1304",8,5,42128,30,"M",1,0,783,1
"1305",8,5,42128,31,"P",1,1,1148,1
"1306",8,5,42128,32,"P",0,0,915,1
"1307",8,5,42128,33,"P",0,0,1092,1
"1308",8,5,42128,34,"P",1,0,745,1
"1309",8,5,42128,35,"P",1,0,708,1
"1310",8,5,42128,36,"P",1,0,709,1
"1311",8,5,42128,37,"M",0,1,980,1
"1312",8,5,42128,38,"M",0,0,960,1
"1313",8,5,42128,39,"M",1,0,859,1
"1314",8,5,42128,40,"M",1,0,783,1
"1315",8,5,42128,41,"M",1,0,747,1
"1316",8,5,42128,42,"M",1,0,747,1
"1317",8,5,42128,43,"M",0,0,861,1
"1318",8,5,42128,44,"P",1,1,818,1
"1319",8,5,42128,45,"P",1,0,827,1
"1320",8,5,42128,46,"P",0,0,982,1
"1321",8,5,42128,47,"P",0,0,976,1
"1322",8,5,42128,48,"P",1,0,838,1
"1323",8,5,42128,49,"P",1,0,698,1
"1324",8,5,42128,50,"P",0,0,895,0
"1325",8,5,42128,51,"P",1,0,903,1
"1326",8,5,42128,52,"M",1,1,958,1
"1327",8,5,42128,53,"M",1,0,754,1
"1328",8,5,42128,54,"M",1,0,786,1
"1329",8,5,42128,55,"M",0,0,1195,1
"1330",8,5,42128,57,"M",1,0,734,1
"1331",8,5,42128,58,"P",0,1,1001,1
"1332",8,5,42128,59,"M",1,1,1009,1
"1333",8,5,42128,60,"M",1,0,753,1
"1334",8,5,42128,61,"M",0,0,780,1
"1335",8,5,42128,62,"P",0,1,879,1
"1336",8,5,42128,63,"P",1,0,777,1
"1337",8,5,42128,64,"P",1,0,864,1
"1338",8,5,42128,65,"P",0,0,827,1
"1339",8,5,42128,66,"M",0,1,880,1
"1340",8,5,42128,67,"M",0,0,1052,1
"1341",8,5,42128,68,"M",0,0,721,1
"1342",8,5,42128,69,"P",1,1,754,1
"1343",8,5,44809,1,"P",1,0,613,1
"1344",8,5,44809,2,"M",0,1,1103,1
"1345",8,5,44809,3,"M",1,0,722,1
"1346",8,5,44809,4,"M",1,0,742,1
"1347",8,5,44809,5,"M",0,0,886,1
"1348",8,5,44809,7,"P",1,0,790,1
"1349",8,5,44809,8,"P",1,0,807,1
"1350",8,5,44809,9,"P",1,0,766,1
"1351",8,5,44809,10,"P",1,0,652,1
"1352",8,5,44809,11,"P",1,0,682,1
"1353",8,5,44809,12,"M",1,1,1076,1
"1354",8,5,44809,13,"M",1,0,789,1
"1355",8,5,44809,14,"M",0,0,950,1
"1356",8,5,44809,15,"M",1,0,802,1
"1357",8,5,44809,16,"M",0,0,799,1
"1358",8,5,44809,17,"M",0,0,803,0
"1359",8,5,44809,18,"M",1,0,893,1
"1360",8,5,44809,19,"M",1,0,738,1
"1361",8,5,44809,20,"P",0,1,1064,1
"1362",8,5,44809,21,"P",1,0,761,1
"1363",8,5,44809,22,"P",0,0,868,1
"1364",8,5,44809,23,"P",1,0,957,1
"1365",8,5,44809,25,"P",0,0,1017,1
"1366",8,5,44809,26,"M",0,1,906,1
"1367",8,5,44809,27,"M",0,0,765,1
"1368",8,5,44809,28,"M",1,0,744,1
"1369",8,5,44809,29,"M",0,0,845,1
"1370",8,5,44809,30,"P",1,1,880,1
"1371",8,5,44809,31,"P",1,0,853,1
"1372",8,5,44809,32,"P",0,0,904,1
"1373",8,5,44809,33,"M",1,1,1056,1
"1374",8,5,44809,34,"M",0,0,813,1
"1375",8,5,44809,36,"M",0,0,928,1
"1376",8,5,44809,37,"M",0,0,881,1
"1377",8,5,44809,38,"M",0,0,804,1
"1378",8,5,44809,39,"M",1,0,785,1
"1379",8,5,44809,40,"M",1,0,746,1
"1380",8,5,44809,41,"M",1,0,732,1
"1381",8,5,44809,42,"P",0,1,1027,1
"1382",8,5,44809,43,"P",0,0,889,1
"1383",8,5,44809,44,"M",0,1,1196,1
"1384",8,5,44809,45,"M",0,0,848,1
"1385",8,5,44809,46,"M",1,0,837,1
"1386",8,5,44809,47,"M",0,0,872,1
"1387",8,5,44809,48,"M",0,0,822,1
"1388",8,5,44809,50,"P",0,1,997,1
"1389",8,5,44809,51,"P",1,0,774,1
"1390",8,5,44809,52,"M",1,1,925,1
"1391",8,5,44809,53,"M",1,0,825,1
"1392",8,5,44809,54,"M",1,0,829,1
"1393",8,5,44809,55,"M",1,0,977,1
"1394",8,5,44809,56,"M",1,0,758,1
"1395",8,5,44809,57,"M",0,0,877,1
"1396",8,5,44809,58,"M",1,0,797,1
"1397",8,5,44809,59,"M",1,0,800,1
"1398",8,5,44809,60,"M",1,0,721,1
"1399",8,5,44809,61,"M",0,0,818,1
"1400",8,5,44809,62,"M",1,0,859,0
"1401",8,5,44809,63,"P",0,1,1055,1
"1402",8,5,44809,64,"P",0,0,994,1
"1403",8,5,44809,65,"P",0,0,850,1
"1404",8,5,44809,66,"P",1,0,877,1
"1405",8,5,44809,67,"P",1,0,692,1
"1406",8,5,44809,68,"P",1,0,788,1
"1407",8,5,44809,69,"P",1,0,781,1
"1408",8,5,39684,1,"P",1,0,970,1
"1409",8,5,39684,2,"P",0,0,1054,1
"1410",8,5,39684,3,"P",0,0,1023,1
"1411",8,5,39684,4,"P",1,0,779,1
"1412",8,5,39684,5,"P",1,0,839,1
"1413",8,5,39684,6,"P",0,0,939,1
"1414",8,5,39684,7,"P",0,0,852,1
"1415",8,5,39684,8,"M",1,1,1090,1
"1416",8,5,39684,9,"M",0,0,944,1
"1417",8,5,39684,10,"M",0,0,981,1
"1418",8,5,39684,11,"M",0,0,1054,1
"1419",8,5,39684,12,"M",0,0,1093,1
"1420",8,5,39684,13,"M",1,0,952,1
"1421",8,5,39684,14,"M",1,0,888,1
"1422",8,5,39684,15,"M",1,0,885,1
"1423",8,5,39684,16,"M",1,0,788,1
"1424",8,5,39684,17,"P",1,1,1160,1
"1425",8,5,39684,18,"P",0,0,1015,1
"1426",8,5,39684,19,"P",0,0,1158,1
"1427",8,5,39684,20,"P",1,0,845,1
"1428",8,5,39684,21,"P",1,0,950,1
"1429",8,5,39684,22,"M",1,1,1201,1
"1430",8,5,39684,23,"M",0,0,1014,1
"1431",8,5,39684,25,"M",0,0,1081,1
"1432",8,5,39684,26,"M",1,0,859,1
"1433",8,5,39684,27,"P",1,1,1179,1
"1434",8,5,39684,28,"P",0,0,1097,1
"1435",8,5,39684,29,"P",0,0,984,1
"1436",8,5,39684,31,"M",0,1,1332,1
"1437",8,5,39684,32,"M",1,0,1220,1
"1438",8,5,39684,33,"M",1,0,890,1
"1439",8,5,39684,34,"M",1,0,920,1
"1440",8,5,39684,35,"M",0,0,1205,1
"1441",8,5,39684,37,"M",0,0,1275,1
"1442",8,5,39684,38,"M",0,0,999,1
"1443",8,5,39684,39,"P",0,1,1219,1
"1444",8,5,39684,40,"M",0,1,1541,1
"1445",8,5,39684,41,"M",1,0,996,1
"1446",8,5,39684,42,"M",1,0,899,1
"1447",8,5,39684,43,"M",1,0,724,1
"1448",8,5,39684,44,"P",0,1,1035,1
"1449",8,5,39684,45,"P",0,0,874,1
"1450",8,5,39684,46,"P",0,0,931,1
"1451",8,5,39684,47,"P",0,0,936,1
"1452",8,5,39684,49,"P",1,0,869,1
"1453",8,5,39684,50,"M",1,1,1141,1
"1454",8,5,39684,51,"M",1,0,957,1
"1455",8,5,39684,52,"M",0,0,936,1
"1456",8,5,39684,53,"M",0,0,935,1
"1457",8,5,39684,54,"M",0,0,1417,1
"1458",8,5,39684,55,"M",0,0,885,1
"1459",8,5,39684,56,"P",1,1,965,1
"1460",8,5,39684,57,"P",0,0,783,1
"1461",8,5,39684,58,"P",1,0,817,1
"1462",8,5,39684,59,"P",1,0,948,1
"1463",8,5,42730,1,"P",1,0,1662,1
"1464",8,5,42730,2,"P",1,0,862,1
"1465",8,5,42730,3,"P",0,0,813,1
"1466",8,5,42730,4,"P",1,0,839,1
"1467",8,5,42730,5,"P",0,0,790,1
"1468",8,5,42730,6,"P",1,0,757,1
"1469",8,5,42730,7,"P",1,0,756,1
"1470",8,5,42730,8,"P",0,0,885,1
"1471",8,5,42730,9,"P",1,0,749,1
"1472",8,5,42730,10,"P",1,0,753,1
"1473",8,5,42730,11,"P",1,0,660,1
"1474",8,5,42730,12,"P",1,0,693,1
"1475",8,5,42730,13,"M",1,1,727,1
"1476",8,5,42730,14,"M",0,0,852,1
"1477",8,5,42730,15,"M",0,0,720,1
"1478",8,5,42730,16,"M",0,0,780,0
"1479",8,5,42730,17,"M",0,0,954,1
"1480",8,5,42730,18,"M",1,0,727,1
"1481",8,5,42730,19,"M",1,0,734,1
"1482",8,5,42730,20,"M",1,0,633,1
"1483",8,5,42730,21,"P",0,1,1045,1
"1484",8,5,42730,22,"P",1,0,738,1
"1485",8,5,42730,23,"P",1,0,708,1
"1486",8,5,42730,24,"P",1,0,792,1
"1487",8,5,42730,25,"P",0,0,840,1
"1488",8,5,42730,26,"M",0,1,975,1
"1489",8,5,42730,27,"M",1,0,728,1
"1490",8,5,42730,28,"M",1,0,705,1
"1491",8,5,42730,29,"M",1,0,876,1
"1492",8,5,42730,30,"P",0,1,797,0
"1493",8,5,42730,31,"P",1,0,974,1
"1494",8,5,42730,32,"P",1,0,730,1
"1495",8,5,42730,34,"P",1,0,785,1
"1496",8,5,42730,35,"M",1,1,898,1
"1497",8,5,42730,36,"M",0,0,765,1
"1498",8,5,42730,37,"M",0,0,820,1
"1499",8,5,42730,38,"M",0,0,608,1
"1500",8,5,42730,39,"P",0,1,814,1
"1501",8,5,42730,40,"P",1,0,799,1
"1502",8,5,42730,41,"P",0,0,769,1
"1503",8,5,42730,42,"M",0,1,853,1
"1504",8,5,42730,43,"M",1,0,789,1
"1505",8,5,42730,44,"M",0,0,744,1
"1506",8,5,42730,45,"M",0,0,830,1
"1507",8,5,42730,46,"M",1,0,741,1
"1508",8,5,42730,47,"M",0,0,725,1
"1509",8,5,42730,49,"M",1,0,807,1
"1510",8,5,42730,50,"P",0,1,1222,1
"1511",8,5,42730,51,"P",1,0,832,1
"1512",8,5,42730,52,"M",1,1,884,1
"1513",8,5,42730,53,"M",0,0,978,0
"1514",8,5,42730,54,"M",0,0,1046,0
"1515",8,5,42730,55,"M",0,0,938,0
"1516",8,5,42730,56,"M",0,0,883,0
"1517",8,5,42730,57,"M",1,0,773,1
"1518",8,5,42730,58,"M",1,0,730,1
"1519",8,5,42730,59,"M",0,0,828,0
"1520",8,5,42730,60,"P",0,1,866,1
"1521",8,5,42730,62,"P",0,0,799,1
"1522",8,5,42730,63,"P",1,0,792,1
"1523",8,5,42730,64,"P",0,0,711,1
"1524",8,5,42730,65,"M",1,1,820,1
"1525",8,5,42730,66,"M",0,0,881,1
"1526",8,5,42730,67,"M",0,0,812,1
"1527",8,5,42730,68,"M",1,0,852,0
"1528",8,5,42730,69,"P",0,1,962,1
"1529",8,5,42730,70,"P",0,0,908,1
"1530",8,5,42730,71,"P",1,0,748,1
"1531",8,5,42684,1,"P",1,0,514,1
"1532",8,5,42684,2,"P",1,0,643,1
"1533",8,5,42684,3,"P",0,0,876,1
"1534",8,5,42684,4,"P",0,0,794,1
"1535",8,5,42684,5,"P",0,0,947,1
"1536",8,5,42684,6,"P",1,0,780,1
"1537",8,5,42684,7,"P",1,0,725,1
"1538",8,5,42684,8,"M",1,1,1032,1
"1539",8,5,42684,9,"M",1,0,792,1
"1540",8,5,42684,10,"M",1,0,691,1
"1541",8,5,42684,11,"P",1,1,721,1
"1542",8,5,42684,12,"P",1,0,756,1
"1543",8,5,42684,13,"M",1,1,781,1
"1544",8,5,42684,14,"M",0,0,836,0
"1545",8,5,42684,15,"P",0,1,1165,0
"1546",8,5,42684,16,"P",1,0,856,1
"1547",8,5,42684,17,"P",1,0,821,1
"1548",8,5,42684,18,"P",0,0,905,1
"1549",8,5,42684,19,"M",0,1,1040,1
"1550",8,5,42684,20,"M",1,0,750,1
"1551",8,5,42684,21,"M",1,0,800,1
"1552",8,5,42684,22,"M",0,0,811,1
"1553",8,5,42684,23,"M",0,0,871,1
"1554",8,5,42684,24,"M",0,0,948,1
"1555",8,5,42684,25,"M",0,0,794,1
"1556",8,5,42684,26,"M",0,0,708,1
"1557",8,5,42684,27,"M",1,0,774,0
"1558",8,5,42684,28,"P",1,1,1075,1
"1559",8,5,42684,29,"P",1,0,929,1
"1560",8,5,42684,30,"P",1,0,777,1
"1561",8,5,42684,31,"P",1,0,757,1
"1562",8,5,42684,33,"M",0,1,1313,1
"1563",8,5,42684,34,"M",1,0,806,1
"1564",8,5,42684,35,"M",0,0,829,1
"1565",8,5,42684,36,"M",1,0,775,1
"1566",8,5,42684,37,"M",0,0,890,1
"1567",8,5,42684,38,"M",0,0,923,1
"1568",8,5,42684,39,"P",1,1,995,1
"1569",8,5,42684,40,"P",0,0,848,1
"1570",8,5,42684,41,"P",0,0,954,1
"1571",8,5,42684,42,"P",0,0,950,1
"1572",8,5,42684,43,"M",0,1,1109,1
"1573",8,5,42684,44,"M",1,0,732,1
"1574",8,5,42684,45,"P",0,1,1077,1
"1575",8,5,42684,46,"P",0,0,805,1
"1576",8,5,42684,47,"P",0,0,852,1
"1577",8,5,42684,48,"P",1,0,791,1
"1578",8,5,42684,49,"M",0,1,918,0
"1579",8,5,42684,50,"P",0,1,1200,1
"1580",8,5,42684,51,"P",0,0,901,1
"1581",8,5,42684,52,"P",1,0,903,1
"1582",8,5,42684,53,"P",1,0,842,1
"1583",8,5,42684,54,"P",0,0,826,1
"1584",8,5,42684,55,"M",1,1,908,1
"1585",8,5,42684,56,"M",1,0,721,1
"1586",8,5,42684,57,"M",0,0,956,1
"1587",8,5,42684,59,"M",0,0,1395,1
"1588",8,5,42684,60,"M",1,0,817,1
"1589",8,5,42684,61,"M",1,0,790,1
"1590",8,5,42684,62,"M",1,0,829,1
"1591",8,5,42684,63,"M",1,0,746,1
"1592",8,5,42684,64,"M",1,0,805,1
"1593",8,5,42684,65,"P",0,1,1182,1
"1594",8,5,42684,66,"M",1,1,1186,1
"1595",8,5,42731,1,"P",1,0,223,1
"1596",8,5,42731,2,"P",1,0,577,1
"1597",8,5,42731,3,"P",1,0,711,1
"1598",8,5,42731,4,"P",1,0,716,1
"1599",8,5,42731,5,"P",0,0,668,1
"1600",8,5,42731,6,"P",0,0,749,1
"1601",8,5,42731,7,"M",1,1,819,1
"1602",8,5,42731,8,"M",1,0,698,1
"1603",8,5,42731,9,"M",1,0,705,1
"1604",8,5,42731,10,"M",0,0,756,0
"1605",8,5,42731,11,"P",0,1,982,1
"1606",8,5,42731,12,"P",1,0,763,1
"1607",8,5,42731,13,"P",1,0,708,1
"1608",8,5,42731,14,"M",0,1,966,1
"1609",8,5,42731,15,"M",0,0,618,1
"1610",8,5,42731,16,"M",1,0,708,1
"1611",8,5,42731,17,"M",1,0,693,1
"1612",8,5,42731,18,"P",0,1,875,1
"1613",8,5,42731,19,"P",1,0,737,1
"1614",8,5,42731,20,"P",0,0,769,1
"1615",8,5,42731,21,"P",1,0,785,1
"1616",8,5,42731,22,"M",1,1,777,1
"1617",8,5,42731,23,"M",0,0,908,1
"1618",8,5,42731,24,"M",1,0,757,1
"1619",8,5,42731,25,"M",0,0,721,1
"1620",8,5,42731,26,"M",0,0,781,1
"1621",8,5,42731,27,"M",1,0,1217,1
"1622",8,5,42731,28,"M",0,0,756,1
"1623",8,5,42731,29,"M",0,0,801,1
"1624",8,5,42731,31,"M",1,0,675,1
"1625",8,5,42731,32,"P",1,1,749,1
"1626",8,5,42731,33,"P",1,0,642,1
"1627",8,5,42731,34,"P",0,0,956,1
"1628",8,5,42731,35,"P",0,0,978,1
"1629",8,5,42731,36,"P",0,0,963,1
"1630",8,5,42731,37,"P",1,0,688,1
"1631",8,5,42731,38,"P",0,0,785,1
"1632",8,5,42731,39,"P",0,0,647,1
"1633",8,5,42731,40,"P",0,0,765,1
"1634",8,5,42731,41,"P",1,0,799,1
"1635",8,5,42731,42,"P",0,0,853,1
"1636",8,5,42731,43,"M",0,1,953,0
"1637",8,5,42731,44,"M",0,0,1030,1
"1638",8,5,42731,45,"P",1,1,829,1
"1639",8,5,42731,46,"P",1,0,753,1
"1640",8,5,42731,47,"P",0,0,741,1
"1641",8,5,42731,48,"M",0,1,785,1
"1642",8,5,42731,49,"M",1,0,709,1
"1643",8,5,42731,50,"M",0,0,827,1
"1644",8,5,42731,51,"M",0,0,792,1
"1645",8,5,42731,53,"M",1,0,752,1
"1646",8,5,42731,54,"P",1,1,817,1
"1647",8,5,42731,55,"P",1,0,748,1
"1648",8,5,42731,56,"P",1,0,709,1
"1649",8,5,42731,57,"P",0,0,798,1
"1650",8,5,42731,58,"P",0,0,751,1
"1651",8,5,42731,59,"P",1,0,734,1
"1652",8,5,42731,60,"P",0,0,779,1
"1653",8,5,42731,61,"P",1,0,668,1
"1654",8,5,42731,62,"M",0,1,817,1
"1655",8,5,42731,63,"M",0,0,775,1
"1656",8,5,42731,64,"M",1,0,680,1
"1657",8,5,42731,65,"P",1,1,648,1
"1658",8,5,42731,66,"P",0,0,833,1
"1659",8,5,42731,67,"P",0,0,752,0
"1660",8,5,42731,68,"P",0,0,884,1
"1661",8,5,42731,69,"P",1,0,731,1
"1662",8,5,42731,70,"M",0,1,1214,0
"1663",8,5,42731,71,"M",0,0,1066,1
"1664",8,5,42731,73,"M",1,0,635,1
"1665",8,5,42731,74,"M",0,0,749,1
"1666",8,5,42731,75,"M",0,0,786,1
"1667",8,5,42687,1,"P",1,0,489,1
"1668",8,5,42687,2,"P",0,0,731,1
"1669",8,5,42687,3,"P",0,0,696,1
"1670",8,5,42687,5,"P",1,0,760,1
"1671",8,5,42687,6,"P",1,0,745,1
"1672",8,5,42687,7,"M",0,1,983,1
"1673",8,5,42687,8,"M",0,0,686,1
"1674",8,5,42687,9,"M",0,0,741,1
"1675",8,5,42687,10,"M",1,0,788,1
"1676",8,5,42687,12,"M",0,0,781,1
"1677",8,5,42687,13,"M",1,0,719,1
"1678",8,5,42687,14,"M",0,0,801,1
"1679",8,5,42687,15,"P",0,1,847,1
"1680",8,5,42687,16,"P",1,0,721,1
"1681",8,5,42687,17,"P",0,0,815,0
"1682",8,5,42687,18,"P",1,0,897,1
"1683",8,5,42687,19,"M",0,1,826,1
"1684",8,5,42687,20,"M",0,0,835,1
"1685",8,5,42687,21,"M",0,0,740,1
"1686",8,5,42687,23,"M",1,0,672,1
"1687",8,5,42687,24,"M",0,0,873,1
"1688",8,5,42687,25,"M",1,0,785,1
"1689",8,5,42687,26,"M",0,0,744,1
"1690",8,5,42687,27,"M",0,0,980,1
"1691",8,5,42687,28,"P",1,1,1045,1
"1692",8,5,42687,29,"P",1,0,669,1
"1693",8,5,42687,30,"P",0,0,727,1
"1694",8,5,42687,31,"P",0,0,937,1
"1695",8,5,42687,32,"P",1,0,879,1
"1696",8,5,42687,33,"P",0,0,799,1
"1697",8,5,42687,34,"P",0,0,928,1
"1698",8,5,42687,35,"P",1,0,747,1
"1699",8,5,42687,37,"M",0,0,717,1
"1700",8,5,42687,38,"P",1,1,1387,1
"1701",8,5,42687,39,"P",0,0,867,1
"1702",8,5,42687,40,"P",0,0,912,1
"1703",8,5,42687,41,"M",1,1,812,1
"1704",8,5,42687,42,"M",1,0,825,1
"1705",8,5,42687,43,"M",1,0,740,1
"1706",8,5,42687,44,"M",1,0,913,1
"1707",8,5,42687,45,"M",1,0,857,1
"1708",8,5,42687,46,"P",1,1,800,1
"1709",8,5,42687,47,"P",1,0,846,1
"1710",8,5,42687,48,"P",0,0,989,1
"1711",8,5,42687,49,"P",0,0,823,1
"1712",8,5,42687,50,"P",0,0,745,1
"1713",8,5,42687,51,"P",1,0,1073,1
"1714",8,5,42687,52,"P",0,0,829,1
"1715",8,5,42687,53,"P",1,0,948,1
"1716",8,5,42687,54,"P",0,0,1056,1
"1717",8,5,42687,55,"P",1,0,769,1
"1718",8,5,42687,56,"M",0,1,1092,1
"1719",8,5,42687,57,"M",0,0,898,1
"1720",8,5,42687,58,"M",1,0,848,1
"1721",8,5,42687,59,"M",1,0,764,1
"1722",8,5,42687,60,"M",1,0,797,1
"1723",8,5,42687,61,"M",1,0,812,1
"1724",8,5,42687,62,"P",1,1,809,1
"1725",8,5,42687,63,"P",0,0,915,1
"1726",8,5,42687,64,"P",0,0,1517,1
"1727",8,5,42687,66,"P",0,0,933,1
"1728",8,5,42687,67,"M",1,1,865,1
"1729",8,5,42687,68,"M",1,0,693,1
"1730",8,5,42687,69,"M",0,0,912,1
"1731",8,5,39923,1,"P",1,0,293,1
"1732",8,5,39923,2,"P",1,0,739,1
"1733",8,5,39923,3,"P",1,0,800,1
"1734",8,5,39923,4,"P",1,0,670,1
"1735",8,5,39923,5,"P",1,0,890,1
"1736",8,5,39923,6,"P",0,0,997,1
"1737",8,5,39923,7,"P",0,0,1255,0
"1738",8,5,39923,8,"M",0,1,1264,1
"1739",8,5,39923,9,"M",1,0,754,1
"1740",8,5,39923,10,"M",1,0,702,1
"1741",8,5,39923,11,"M",0,0,885,1
"1742",8,5,39923,12,"M",0,0,723,1
"1743",8,5,39923,13,"P",0,1,1087,1
"1744",8,5,39923,14,"P",0,0,986,1
"1745",8,5,39923,15,"M",0,1,1278,1
"1746",8,5,39923,16,"M",1,0,827,1
"1747",8,5,39923,18,"M",1,0,1521,1
"1748",8,5,39923,19,"P",0,1,1102,1
"1749",8,5,39923,20,"P",0,0,1073,1
"1750",8,5,39923,21,"P",1,0,706,1
"1751",8,5,39923,23,"M",0,0,819,1
"1752",8,5,39923,24,"M",0,0,887,1
"1753",8,5,39923,25,"M",1,0,758,1
"1754",8,5,39923,26,"M",0,0,938,0
"1755",8,5,39923,27,"M",0,0,1651,1
"1756",8,5,39923,28,"M",0,0,1033,1
"1757",8,5,39923,29,"P",0,1,1092,1
"1758",8,5,39923,30,"P",1,0,853,1
"1759",8,5,39923,31,"P",0,0,888,1
"1760",8,5,39923,32,"P",1,0,870,1
"1761",8,5,39923,33,"P",1,0,911,1
"1762",8,5,39923,34,"P",0,0,1090,1
"1763",8,5,39923,35,"P",0,0,959,1
"1764",8,5,39923,36,"P",1,0,839,1
"1765",8,5,39923,37,"P",0,0,928,1
"1766",8,5,39923,38,"P",1,0,1027,1
"1767",8,5,39923,39,"P",0,0,1048,1
"1768",8,5,39923,41,"M",0,1,1613,1
"1769",8,5,39923,42,"M",0,0,920,1
"1770",8,5,39923,43,"M",0,0,1051,1
"1771",8,5,39923,45,"M",1,0,1090,1
"1772",8,5,39923,46,"M",0,0,1750,1
"1773",8,5,39923,48,"M",0,0,931,1
"1774",8,5,39923,49,"M",1,0,1044,1
"1775",8,5,39923,50,"M",0,0,1123,1
"1776",8,5,39923,51,"P",1,1,965,1
"1777",8,5,39923,52,"P",0,0,1104,1
"1778",8,5,39923,53,"P",1,0,839,1
"1779",8,5,39923,54,"P",0,0,921,1
"1780",8,5,39923,55,"P",0,0,838,1
"1781",8,5,39923,56,"M",0,1,1366,1
"1782",8,5,39923,57,"M",1,0,834,1
"1783",8,5,39923,58,"M",1,0,790,1
"1784",8,5,39923,59,"M",0,0,965,1
"1785",8,5,39923,60,"M",0,0,933,1
"1786",8,5,42686,1,"P",1,0,394,1
"1787",8,5,42686,2,"P",0,0,744,1
"1788",8,5,42686,3,"P",0,0,633,1
"1789",8,5,42686,4,"P",1,0,692,1
"1790",8,5,42686,5,"P",0,0,719,1
"1791",8,5,42686,6,"M",0,1,1059,1
"1792",8,5,42686,7,"M",0,0,891,1
"1793",8,5,42686,8,"M",1,0,774,1
"1794",8,5,42686,9,"M",1,0,814,1
"1795",8,5,42686,10,"P",1,1,842,1
"1796",8,5,42686,11,"P",1,0,643,1
"1797",8,5,42686,12,"P",0,0,944,0
"1798",8,5,42686,13,"P",0,0,1061,1
"1799",8,5,42686,14,"P",0,0,853,1
"1800",8,5,42686,15,"P",0,0,750,1
"1801",8,5,42686,16,"P",1,0,868,1
"1802",8,5,42686,17,"P",1,0,717,1
"1803",8,5,42686,18,"P",1,0,822,1
"1804",8,5,42686,19,"M",0,1,1345,1
"1805",8,5,42686,20,"P",0,1,1046,1
"1806",8,5,42686,21,"P",1,0,786,1
"1807",8,5,42686,22,"P",1,0,769,1
"1808",8,5,42686,23,"P",1,0,759,1
"1809",8,5,42686,24,"M",0,1,851,1
"1810",8,5,42686,25,"M",1,0,775,1
"1811",8,5,42686,26,"M",0,0,857,1
"1812",8,5,42686,27,"P",0,1,939,1
"1813",8,5,42686,28,"P",0,0,814,1
"1814",8,5,42686,29,"P",1,0,788,1
"1815",8,5,42686,30,"P",0,0,1095,1
"1816",8,5,42686,31,"M",0,1,1035,1
"1817",8,5,42686,33,"M",0,0,1060,1
"1818",8,5,42686,34,"M",1,0,795,1
"1819",8,5,42686,35,"P",0,1,949,1
"1820",8,5,42686,36,"P",0,0,924,1
"1821",8,5,42686,37,"P",0,0,885,1
"1822",8,5,42686,39,"P",1,0,920,1
"1823",8,5,42686,40,"M",1,1,989,1
"1824",8,5,42686,41,"P",0,1,1066,0
"1825",8,5,42686,42,"P",1,0,1030,1
"1826",8,5,42686,43,"M",1,1,761,1
"1827",8,5,42686,44,"M",1,0,850,1
"1828",8,5,42686,45,"P",0,1,1451,0
"1829",8,5,42686,46,"P",0,0,977,0
"1830",8,5,42686,47,"P",1,0,905,1
"1831",8,5,42686,49,"P",1,0,839,1
"1832",8,5,42686,50,"M",1,1,862,1
"1833",8,5,42686,51,"M",0,0,815,1
"1834",8,5,42686,52,"M",1,0,789,1
"1835",8,5,42686,53,"M",1,0,2509,1
"1836",8,5,42686,54,"M",1,0,808,1
"1837",8,5,42686,55,"M",1,0,800,1
"1838",8,5,42686,56,"M",0,0,996,1
"1839",8,5,42686,57,"M",0,0,766,1
"1840",8,5,42686,58,"M",0,0,1038,1
"1841",8,5,42686,59,"M",0,0,1277,1
"1842",8,5,42686,60,"M",0,0,804,1
"1843",8,5,42686,61,"M",0,0,981,1
"1844",8,5,42686,62,"M",0,0,1199,0
"1845",8,5,40236,1,"P",1,0,610,1
"1846",8,5,40236,2,"P",0,0,896,1
"1847",8,5,40236,3,"P",1,0,813,1
"1848",8,5,40236,4,"M",1,1,1395,1
"1849",8,5,40236,6,"P",0,1,979,1
"1850",8,5,40236,7,"P",0,0,1182,1
"1851",8,5,40236,8,"P",0,0,922,1
"1852",8,5,40236,9,"M",0,1,999,1
"1853",8,5,40236,10,"M",1,0,926,1
"1854",8,5,40236,11,"M",0,0,1005,1
"1855",8,5,40236,12,"M",0,0,1018,1
"1856",8,5,40236,13,"M",0,0,1058,1
"1857",8,5,40236,14,"M",1,0,858,1
"1858",8,5,40236,15,"M",0,0,947,1
"1859",8,5,40236,16,"M",0,0,989,1
"1860",8,5,40236,17,"M",0,0,966,1
"1861",8,5,40236,18,"P",0,1,1243,1
"1862",8,5,40236,19,"P",1,0,849,1
"1863",8,5,40236,20,"P",1,0,828,1
"1864",8,5,40236,21,"P",1,0,780,1
"1865",8,5,40236,22,"P",1,0,810,1
"1866",8,5,40236,23,"P",1,0,758,1
"1867",8,5,40236,24,"P",1,0,850,1
"1868",8,5,40236,25,"P",1,0,818,1
"1869",8,5,40236,26,"P",0,0,913,1
"1870",8,5,40236,27,"P",0,0,861,1
"1871",8,5,40236,28,"P",0,0,2144,1
"1872",8,5,40236,29,"P",1,0,887,1
"1873",8,5,40236,30,"P",1,0,765,1
"1874",8,5,40236,32,"P",0,0,895,1
"1875",8,5,40236,33,"P",1,0,818,1
"1876",8,5,40236,34,"P",0,0,917,1
"1877",8,5,40236,35,"M",1,1,1003,1
"1878",8,5,40236,36,"M",0,0,931,1
"1879",8,5,40236,37,"M",1,0,841,1
"1880",8,5,40236,38,"P",0,1,1040,1
"1881",8,5,40236,39,"P",0,0,887,1
"1882",8,5,40236,40,"P",0,0,992,1
"1883",8,5,40236,41,"P",1,0,872,1
"1884",8,5,40236,43,"P",1,0,871,1
"1885",8,5,40236,44,"M",1,1,1036,1
"1886",8,5,40236,45,"M",1,0,845,1
"1887",8,5,40236,46,"M",1,0,810,1
"1888",8,5,40236,47,"M",0,0,957,1
"1889",8,5,40236,48,"M",1,0,824,1
"1890",8,5,40236,49,"P",1,1,966,1
"1891",8,5,40236,50,"P",0,0,952,1
"1892",8,5,40236,51,"P",0,0,805,1
"1893",8,5,40236,52,"P",1,0,787,1
"1894",8,5,40236,53,"M",1,1,915,1
"1895",8,5,40236,54,"M",1,0,864,1
"1896",8,5,40236,55,"M",1,0,786,1
"1897",8,5,40236,56,"M",0,0,848,1
"1898",8,5,40236,57,"M",0,0,1214,1
"1899",8,5,40236,58,"P",0,1,1169,1
"1900",8,5,40236,60,"P",0,0,898,0
"1901",8,5,40236,61,"P",1,0,1051,1
"1902",8,5,40237,1,"P",1,0,424,1
"1903",8,5,40237,2,"P",1,0,703,1
"1904",8,5,40237,3,"M",1,1,975,1
"1905",8,5,40237,4,"M",1,0,696,1
"1906",8,5,40237,5,"M",1,0,873,1
"1907",8,5,40237,7,"M",1,0,824,1
"1908",8,5,40237,8,"P",0,1,933,1
"1909",8,5,40237,9,"P",1,0,884,1
"1910",8,5,40237,10,"P",1,0,696,1
"1911",8,5,40237,11,"P",0,0,845,1
"1912",8,5,40237,12,"P",1,0,818,1
"1913",8,5,40237,13,"M",1,1,988,1
"1914",8,5,40237,14,"M",1,0,784,1
"1915",8,5,40237,15,"M",0,0,937,1
"1916",8,5,40237,17,"P",0,1,911,1
"1917",8,5,40237,18,"P",1,0,794,1
"1918",8,5,40237,19,"P",0,0,811,1
"1919",8,5,40237,20,"P",0,0,875,1
"1920",8,5,40237,21,"P",1,0,788,1
"1921",8,5,40237,22,"P",1,0,787,1
"1922",8,5,40237,25,"M",0,1,1378,1
"1923",8,5,40237,26,"M",0,0,1209,0
"1924",8,5,40237,27,"M",0,0,1454,1
"1925",8,5,40237,28,"M",1,0,839,1
"1926",8,5,40237,30,"M",0,0,891,1
"1927",8,5,40237,31,"P",1,1,1013,1
"1928",8,5,40237,32,"P",0,0,894,1
"1929",8,5,40237,33,"P",1,0,739,1
"1930",8,5,40237,34,"P",0,0,1138,1
"1931",8,5,40237,36,"P",0,0,1109,1
"1932",8,5,40237,37,"M",1,1,1116,1
"1933",8,5,40237,38,"M",1,0,758,1
"1934",8,5,40237,39,"M",1,0,703,1
"1935",8,5,40237,40,"P",0,1,1166,1
"1936",8,5,40237,41,"P",1,0,843,1
"1937",8,5,40237,42,"M",1,1,1098,1
"1938",8,5,40237,43,"M",0,0,1566,1
"1939",8,5,40237,44,"M",0,0,1105,0
"1940",8,5,40237,45,"M",1,0,1925,1
"1941",8,5,40237,46,"M",0,0,2611,1
"1942",8,5,40237,47,"M",0,0,2195,1
"1943",8,5,40237,49,"M",0,0,1035,1
"1944",8,5,40237,51,"M",0,0,757,1
"1945",8,5,40237,52,"P",0,1,1126,1
"1946",8,5,40237,53,"M",0,1,1357,1
"1947",8,5,40237,54,"M",1,0,940,1
"1948",8,5,40237,55,"M",1,0,774,1
"1949",8,5,40237,56,"M",1,0,753,1
"1950",8,5,40237,57,"M",1,0,776,1
"1951",8,5,40237,58,"M",1,0,771,1
"1952",8,5,40495,1,"P",1,0,384,1
"1953",8,5,40495,2,"P",0,0,704,1
"1954",8,5,40495,3,"P",1,0,737,1
"1955",8,5,40495,4,"P",0,0,818,1
"1956",8,5,40495,5,"P",1,0,837,1
"1957",8,5,40495,6,"P",0,0,804,1
"1958",8,5,40495,7,"M",0,1,978,1
"1959",8,5,40495,8,"M",1,0,857,1
"1960",8,5,40495,9,"M",0,0,909,1
"1961",8,5,40495,10,"M",1,0,922,1
"1962",8,5,40495,11,"M",1,0,862,1
"1963",8,5,40495,12,"P",1,1,914,1
"1964",8,5,40495,13,"P",1,0,804,1
"1965",8,5,40495,14,"P",1,0,738,1
"1966",8,5,40495,15,"P",1,0,726,1
"1967",8,5,40495,16,"P",0,0,894,1
"1968",8,5,40495,17,"P",0,0,777,1
"1969",8,5,40495,18,"P",1,0,821,1
"1970",8,5,40495,19,"P",0,0,845,1
"1971",8,5,40495,20,"M",0,1,876,1
"1972",8,5,40495,21,"M",0,0,988,1
"1973",8,5,40495,22,"M",0,0,831,1
"1974",8,5,40495,23,"M",1,0,823,1
"1975",8,5,40495,24,"M",1,0,856,1
"1976",8,5,40495,25,"M",0,0,788,1
"1977",8,5,40495,26,"P",0,1,1114,1
"1978",8,5,40495,27,"P",1,0,743,1
"1979",8,5,40495,29,"P",0,0,1096,1
"1980",8,5,40495,30,"P",0,0,823,0
"1981",8,5,40495,31,"P",0,0,981,1
"1982",8,5,40495,32,"P",1,0,700,1
"1983",8,5,40495,33,"P",1,0,708,1
"1984",8,5,40495,34,"P",1,0,845,1
"1985",8,5,40495,35,"P",0,0,799,1
"1986",8,5,40495,36,"P",0,0,879,1
"1987",8,5,40495,37,"M",0,1,1245,1
"1988",8,5,40495,38,"M",0,0,884,1
"1989",8,5,40495,39,"P",0,1,1029,1
"1990",8,5,40495,41,"M",0,1,1182,1
"1991",8,5,40495,42,"M",1,0,832,1
"1992",8,5,40495,43,"M",1,0,812,1
"1993",8,5,40495,44,"M",1,0,760,1
"1994",8,5,40495,45,"P",0,1,983,1
"1995",8,5,40495,46,"P",0,0,721,1
"1996",8,5,40495,47,"P",1,0,961,1
"1997",8,5,40495,48,"M",1,1,1006,1
"1998",8,5,40495,49,"M",0,0,850,1
"1999",8,5,40495,50,"M",0,0,795,1
"2000",8,5,40495,51,"M",1,0,761,1
"2001",8,5,40495,52,"M",0,0,924,1
"2002",8,5,40495,53,"M",0,0,1073,1
"2003",8,5,40495,54,"P",1,1,989,1
"2004",8,5,40495,55,"P",0,0,926,1
"2005",8,5,40495,56,"P",1,0,787,1
"2006",8,5,40495,57,"P",0,0,794,1
"2007",8,5,40495,58,"P",0,0,867,1
"2008",8,5,40495,59,"P",1,0,723,1
"2009",8,5,40495,60,"P",1,0,947,1
"2010",8,5,40495,61,"P",0,0,898,1
"2011",8,5,40495,62,"P",1,0,770,1
"2012",8,5,40495,63,"P",0,0,1001,1
"2013",8,5,40495,64,"P",1,0,815,1
"2014",8,5,40495,65,"M",0,1,957,1
"2015",8,5,40495,66,"P",0,1,1009,1
"2016",8,5,40495,67,"P",1,0,831,1
"2017",8,5,45739,1,"P",1,0,431,1
"2018",8,5,45739,2,"P",1,0,591,1
"2019",8,5,45739,3,"P",0,0,580,1
"2020",8,5,45739,4,"P",1,0,754,1
"2021",8,5,45739,6,"P",0,0,806,1
"2022",8,5,45739,7,"P",1,0,751,1
"2023",8,5,45739,8,"M",1,1,937,1
"2024",8,5,45739,9,"M",1,0,776,1
"2025",8,5,45739,10,"M",1,0,679,1
"2026",8,5,45739,11,"M",0,0,1026,1
"2027",8,5,45739,12,"M",0,0,992,1
"2028",8,5,45739,13,"P",0,1,943,1
"2029",8,5,45739,14,"P",0,0,905,1
"2030",8,5,45739,15,"P",1,0,668,1
"2031",8,5,45739,16,"P",0,0,713,1
"2032",8,5,45739,17,"P",1,0,792,1
"2033",8,5,45739,18,"P",1,0,769,1
"2034",8,5,45739,19,"P",1,0,752,1
"2035",8,5,45739,20,"P",0,0,786,1
"2036",8,5,45739,22,"M",0,0,756,1
"2037",8,5,45739,23,"M",1,0,747,1
"2038",8,5,45739,24,"M",0,0,782,1
"2039",8,5,45739,25,"M",1,0,791,1
"2040",8,5,45739,26,"M",1,0,766,1
"2041",8,5,45739,27,"P",1,1,770,1
"2042",8,5,45739,28,"P",1,0,718,1
"2043",8,5,45739,29,"M",1,1,953,1
"2044",8,5,45739,30,"M",1,0,705,1
"2045",8,5,45739,31,"M",1,0,785,1
"2046",8,5,45739,32,"M",1,0,762,1
"2047",8,5,45739,34,"P",0,0,1085,1
"2048",8,5,45739,35,"P",0,0,803,1
"2049",8,5,45739,36,"P",0,0,814,1
"2050",8,5,45739,37,"P",0,0,882,1
"2051",8,5,45739,38,"P",0,0,841,1
"2052",8,5,45739,39,"P",0,0,891,1
"2053",8,5,45739,40,"M",1,1,1047,1
"2054",8,5,45739,41,"M",0,0,849,1
"2055",8,5,45739,42,"M",1,0,729,1
"2056",8,5,45739,43,"M",0,0,783,1
"2057",8,5,45739,44,"M",1,0,738,1
"2058",8,5,45739,45,"M",1,0,784,1
"2059",8,5,45739,46,"M",0,0,862,1
"2060",8,5,45739,47,"P",1,1,879,1
"2061",8,5,45739,48,"P",1,0,780,1
"2062",8,5,45739,49,"P",0,0,920,1
"2063",8,5,45739,50,"P",0,0,647,1
"2064",8,5,45739,51,"P",1,0,757,1
"2065",8,5,45739,52,"P",0,0,903,1
"2066",8,5,45739,53,"P",0,0,1073,1
"2067",8,5,45739,54,"P",1,0,714,1
"2068",8,5,45739,55,"P",1,0,777,1
"2069",8,5,45739,56,"P",1,0,753,1
"2070",8,5,45739,57,"P",0,0,765,1
"2071",8,5,45739,58,"P",0,0,716,1
"2072",8,5,45739,59,"M",0,1,1033,1
"2073",8,5,45739,60,"M",0,0,779,1
"2074",8,5,45739,61,"M",0,0,718,1
"2075",8,5,45739,62,"P",0,1,739,0
"2076",8,5,45739,63,"P",1,0,895,1
"2077",8,5,45739,64,"P",1,0,770,1
"2078",8,5,45739,65,"M",0,1,948,1
"2079",8,5,45739,66,"M",1,0,709,1
"2080",8,5,45739,67,"M",0,0,796,1
"2081",8,5,45739,68,"P",1,1,816,1
"2082",8,5,45739,69,"P",1,0,786,1
"2083",8,5,45739,70,"P",0,0,970,1
"2084",8,5,45739,71,"P",1,0,755,1
"2085",8,5,45739,72,"P",0,0,734,1
"2086",8,5,40494,1,"P",1,0,530,1
"2087",8,5,40494,2,"P",0,0,1180,1
"2088",8,5,40494,3,"P",0,0,935,1
"2089",8,5,40494,4,"P",1,0,773,1
"2090",8,5,40494,5,"P",0,0,894,1
"2091",8,5,40494,6,"P",1,0,878,1
"2092",8,5,40494,7,"P",0,0,853,1
"2093",8,5,40494,8,"M",1,1,1168,1
"2094",8,5,40494,9,"M",1,0,827,1
"2095",8,5,40494,10,"M",1,0,822,1
"2096",8,5,40494,11,"P",1,1,924,1
"2097",8,5,40494,12,"P",1,0,921,1
"2098",8,5,40494,13,"P",1,0,791,1
"2099",8,5,40494,14,"P",1,0,815,1
"2100",8,5,40494,15,"P",1,0,693,1
"2101",8,5,40494,16,"P",0,0,800,1
"2102",8,5,40494,17,"M",0,1,1002,1
"2103",8,5,40494,18,"M",0,0,840,1
"2104",8,5,40494,19,"M",0,0,817,1
"2105",8,5,40494,20,"M",1,0,954,1
"2106",8,5,40494,21,"M",1,0,835,1
"2107",8,5,40494,22,"M",0,0,838,1
"2108",8,5,40494,23,"M",1,0,749,1
"2109",8,5,40494,24,"M",1,0,826,1
"2110",8,5,40494,25,"M",1,0,707,1
"2111",8,5,40494,26,"M",0,0,825,1
"2112",8,5,40494,27,"M",0,0,988,1
"2113",8,5,40494,28,"M",0,0,919,1
"2114",8,5,40494,29,"M",0,0,819,1
"2115",8,5,40494,30,"P",1,1,960,1
"2116",8,5,40494,31,"M",1,1,1424,1
"2117",8,5,40494,32,"M",0,0,1100,1
"2118",8,5,40494,33,"M",0,0,869,1
"2119",8,5,40494,34,"M",0,0,977,1
"2120",8,5,40494,35,"M",1,0,1122,1
"2121",8,5,40494,36,"P",0,1,1069,1
"2122",8,5,40494,37,"P",1,0,798,1
"2123",8,5,40494,38,"P",1,0,883,1
"2124",8,5,40494,39,"P",1,0,764,1
"2125",8,5,40494,40,"P",1,0,846,1
"2126",8,5,40494,41,"P",0,0,1084,1
"2127",8,5,40494,42,"M",0,1,1154,1
"2128",8,5,40494,43,"M",0,0,820,1
"2129",8,5,40494,44,"M",1,0,703,1
"2130",8,5,40494,45,"M",0,0,851,1
"2131",8,5,40494,46,"M",1,0,875,1
"2132",8,5,40494,47,"M",1,0,771,1
"2133",8,5,40494,48,"M",0,0,837,1
"2134",8,5,40494,49,"P",0,1,1173,1
"2135",8,5,40494,50,"P",0,0,860,1
"2136",8,5,40494,51,"P",0,0,786,1
"2137",8,5,40494,52,"P",1,0,713,1
"2138",8,5,40494,53,"P",1,0,891,1
"2139",8,5,40494,54,"P",1,0,837,1
"2140",8,5,40494,55,"P",0,0,805,1
"2141",8,5,40494,57,"M",0,1,1069,1
"2142",8,5,40494,58,"M",1,0,808,1
"2143",8,5,40494,59,"M",1,0,762,1
"2144",8,5,40494,60,"M",1,0,786,1
"2145",8,5,40494,61,"M",0,0,847,1
"2146",8,5,40494,62,"M",0,0,718,1
"2147",8,5,40494,63,"M",0,0,864,1
"2148",8,5,40494,64,"M",0,0,862,1
"2149",8,5,40494,65,"P",0,1,953,1
"2150",8,5,40494,66,"P",0,0,905,1
"2151",8,5,45773,1,"P",1,0,559,1
"2152",8,5,45773,2,"P",0,0,674,1
"2153",8,5,45773,3,"P",1,0,781,1
"2154",8,5,45773,4,"P",1,0,707,1
"2155",8,5,45773,5,"M",0,1,1009,1
"2156",8,5,45773,6,"M",1,0,750,1
"2157",8,5,45773,7,"M",0,0,818,1
"2158",8,5,45773,8,"M",0,0,1030,1
"2159",8,5,45773,9,"M",1,0,784,1
"2160",8,5,45773,10,"M",1,0,813,1
"2161",8,5,45773,11,"M",1,0,702,1
"2162",8,5,45773,12,"M",0,0,842,1
"2163",8,5,45773,13,"P",0,1,984,1
"2164",8,5,45773,14,"P",0,0,788,1
"2165",8,5,45773,15,"P",0,0,729,1
"2166",8,5,45773,16,"P",1,0,706,1
"2167",8,5,45773,17,"P",0,0,814,1
"2168",8,5,45773,18,"P",0,0,954,1
"2169",8,5,45773,19,"M",1,1,814,1
"2170",8,5,45773,20,"M",0,0,795,1
"2171",8,5,45773,21,"M",1,0,717,1
"2172",8,5,45773,22,"M",0,0,1028,1
"2173",8,5,45773,23,"M",1,0,827,1
"2174",8,5,45773,24,"M",1,0,845,1
"2175",8,5,45773,25,"M",1,0,1432,1
"2176",8,5,45773,26,"M",0,0,918,1
"2177",8,5,45773,27,"M",0,0,831,1
"2178",8,5,45773,28,"M",0,0,850,1
"2179",8,5,45773,29,"P",1,1,800,1
"2180",8,5,45773,30,"P",0,0,742,1
"2181",8,5,45773,31,"P",1,0,742,1
"2182",8,5,45773,33,"P",1,0,768,1
"2183",8,5,45773,34,"P",0,0,794,1
"2184",8,5,45773,35,"P",1,0,710,1
"2185",8,5,45773,36,"M",1,1,1027,1
"2186",8,5,45773,37,"M",0,0,742,1
"2187",8,5,45773,38,"M",1,0,755,1
"2188",8,5,45773,39,"M",1,0,778,1
"2189",8,5,45773,40,"M",1,0,749,1
"2190",8,5,45773,41,"P",0,1,1346,1
"2191",8,5,45773,42,"P",1,0,802,1
"2192",8,5,45773,43,"P",0,0,881,1
"2193",8,5,45773,45,"M",0,0,897,1
"2194",8,5,45773,46,"M",0,0,1510,1
"2195",8,5,45773,47,"M",0,0,772,1
"2196",8,5,45773,48,"M",1,0,775,1
"2197",8,5,45773,49,"M",1,0,848,1
"2198",8,5,45773,50,"M",1,0,774,1
"2199",8,5,45773,51,"P",0,1,816,0
"2200",8,5,45773,52,"P",1,0,926,1
"2201",8,5,45773,53,"P",0,0,790,1
"2202",8,5,45773,55,"M",0,1,963,1
"2203",8,5,45773,56,"M",0,0,756,1
"2204",8,5,45773,57,"M",1,0,774,1
"2205",8,5,45773,58,"M",0,0,717,1
"2206",8,5,45773,59,"P",0,1,1152,1
"2207",8,5,45773,60,"P",0,0,795,1
"2208",8,5,45773,61,"P",1,0,715,1
"2209",8,5,45773,62,"P",0,0,822,1
"2210",8,5,45773,63,"P",1,0,749,1
"2211",8,5,45773,64,"P",1,0,763,1
"2212",8,5,45773,65,"P",1,0,720,1
"2213",8,5,45773,66,"P",1,0,709,1
"2214",8,5,45773,67,"M",1,1,992,1
"2215",8,5,45773,68,"M",1,0,798,1
"2216",8,5,45773,69,"M",1,0,740,1
"2217",8,5,45773,70,"M",0,0,797,1
"2218",8,5,45917,1,"P",1,0,476,1
"2219",8,5,45917,2,"P",1,0,626,1
"2220",8,5,45917,3,"P",1,0,740,1
"2221",8,5,45917,4,"P",0,0,779,1
"2222",8,5,45917,5,"P",1,0,818,1
"2223",8,5,45917,6,"P",1,0,796,1
"2224",8,5,45917,7,"P",0,0,983,0
"2225",8,5,45917,8,"M",0,1,1043,1
"2226",8,5,45917,9,"M",0,0,766,1
"2227",8,5,45917,11,"M",0,0,719,1
"2228",8,5,45917,12,"M",1,0,685,1
"2229",8,5,45917,13,"M",1,0,758,1
"2230",8,5,45917,14,"M",0,0,791,1
"2231",8,5,45917,15,"P",0,1,992,1
"2232",8,5,45917,16,"P",0,0,836,1
"2233",8,5,45917,17,"P",1,0,727,1
"2234",8,5,45917,18,"M",1,1,947,1
"2235",8,5,45917,19,"M",0,0,818,0
"2236",8,5,45917,20,"M",0,0,1560,1
"2237",8,5,45917,21,"M",0,0,977,0
"2238",8,5,45917,22,"M",1,0,918,1
"2239",8,5,45917,23,"M",1,0,854,1
"2240",8,5,45917,24,"M",1,0,730,1
"2241",8,5,45917,26,"M",0,0,828,1
"2242",8,5,45917,27,"M",0,0,884,1
"2243",8,5,45917,28,"M",1,0,695,1
"2244",8,5,45917,29,"P",0,1,982,1
"2245",8,5,45917,30,"P",0,0,732,1
"2246",8,5,45917,31,"P",1,0,746,1
"2247",8,5,45917,32,"P",0,0,846,1
"2248",8,5,45917,33,"M",1,1,819,1
"2249",8,5,45917,34,"M",0,0,824,1
"2250",8,5,45917,35,"M",1,0,778,1
"2251",8,5,45917,36,"M",1,0,791,1
"2252",8,5,45917,37,"P",1,1,780,1
"2253",8,5,45917,38,"P",1,0,777,1
"2254",8,5,45917,39,"P",1,0,730,1
"2255",8,5,45917,40,"P",0,0,825,1
"2256",8,5,45917,41,"P",1,0,918,1
"2257",8,5,45917,42,"P",0,0,740,1
"2258",8,5,45917,43,"M",0,1,946,0
"2259",8,5,45917,44,"M",1,0,981,1
"2260",8,5,45917,45,"M",1,0,870,1
"2261",8,5,45917,46,"M",0,0,754,1
"2262",8,5,45917,47,"M",0,0,949,1
"2263",8,5,45917,48,"M",1,0,791,1
"2264",8,5,45917,49,"M",1,0,813,1
"2265",8,5,45917,50,"M",1,0,714,1
"2266",8,5,45917,51,"M",0,0,822,1
"2267",8,5,45917,52,"M",1,0,723,1
"2268",8,5,45917,53,"P",0,1,912,1
"2269",8,5,45917,54,"P",1,0,751,1
"2270",8,5,45917,55,"P",0,0,868,1
"2271",8,5,45917,56,"P",1,0,746,1
"2272",8,5,45917,57,"P",1,0,782,1
"2273",8,5,45917,58,"P",1,0,805,1
"2274",8,5,45917,59,"M",1,1,882,1
"2275",8,5,45917,60,"M",1,0,785,1
"2276",8,5,45917,61,"M",0,0,889,0
"2277",8,5,45917,62,"M",0,0,961,1
"2278",8,5,45917,63,"M",1,0,788,1
"2279",8,5,45917,64,"M",0,0,839,1
"2280",8,5,45917,65,"M",1,0,822,1
"2281",8,5,45917,67,"P",0,0,979,1
"2282",8,5,45917,68,"P",1,0,679,1
"2283",8,5,45917,69,"M",0,1,998,0
"2284",8,5,45917,70,"M",1,0,975,1
"2285",8,5,48529,1,"P",1,0,4995,1
"2286",8,5,48529,2,"P",1,0,767,1
"2287",8,5,48529,3,"P",1,0,808,1
"2288",8,5,48529,4,"M",1,1,875,1
"2289",8,5,48529,5,"M",1,0,788,1
"2290",8,5,48529,6,"M",0,0,888,1
"2291",8,5,48529,7,"M",1,0,979,1
"2292",8,5,48529,8,"M",0,0,897,1
"2293",8,5,48529,9,"P",0,1,1073,1
"2294",8,5,48529,10,"P",1,0,799,1
"2295",8,5,48529,11,"P",0,0,886,1
"2296",8,5,48529,12,"P",0,0,850,1
"2297",8,5,48529,13,"M",1,1,936,1
"2298",8,5,48529,14,"M",1,0,802,1
"2299",8,5,48529,15,"M",1,0,678,1
"2300",8,5,48529,16,"M",0,0,872,1
"2301",8,5,48529,17,"M",1,0,753,1
"2302",8,5,48529,19,"P",1,0,792,1
"2303",8,5,48529,20,"M",0,1,1144,1
"2304",8,5,48529,21,"M",1,0,790,1
"2305",8,5,48529,22,"M",1,0,696,1
"2306",8,5,48529,23,"P",1,1,849,1
"2307",8,5,48529,24,"P",1,0,830,1
"2308",8,5,48529,25,"P",0,0,850,1
"2309",8,5,48529,26,"P",0,0,700,1
"2310",8,5,48529,27,"P",1,0,761,1
"2311",8,5,48529,28,"P",1,0,782,1
"2312",8,5,48529,29,"M",0,1,1008,0
"2313",8,5,48529,30,"M",1,0,1012,1
"2314",8,5,48529,31,"M",0,0,821,1
"2315",8,5,48529,32,"M",1,0,719,1
"2316",8,5,48529,33,"M",1,0,773,1
"2317",8,5,48529,34,"P",0,1,1070,1
"2318",8,5,48529,35,"P",0,0,948,1
"2319",8,5,48529,36,"P",0,0,853,1
"2320",8,5,48529,37,"P",0,0,838,1
"2321",8,5,48529,38,"P",1,0,781,1
"2322",8,5,48529,39,"P",1,0,794,1
"2323",8,5,48529,40,"P",1,0,787,1
"2324",8,5,48529,41,"P",1,0,755,1
"2325",8,5,48529,42,"P",1,0,772,1
"2326",8,5,48529,44,"M",0,0,920,1
"2327",8,5,48529,45,"M",1,0,908,1
"2328",8,5,48529,46,"M",0,0,716,1
"2329",8,5,48529,47,"M",1,0,813,1
"2330",8,5,48529,48,"M",1,0,716,1
"2331",8,5,48529,49,"M",1,0,651,1
"2332",8,5,48529,50,"M",0,0,857,1
"2333",8,5,48529,51,"M",1,0,850,1
"2334",8,5,48529,53,"P",0,0,969,1
"2335",8,5,48529,54,"P",1,0,788,1
"2336",8,5,48529,55,"P",1,0,775,1
"2337",8,5,48529,56,"P",0,0,1011,1
"2338",8,5,48529,57,"P",0,0,814,1
"2339",8,5,48529,58,"P",0,0,913,1
"2340",8,5,48529,59,"P",0,0,718,1
"2341",8,5,48529,60,"M",1,1,924,1
"2342",8,5,48529,61,"M",0,0,660,0
"2343",8,5,48529,62,"M",1,0,861,1
"2344",8,5,48529,63,"M",1,0,845,1
"2345",8,5,48529,64,"M",1,0,712,1
"2346",8,5,45918,2,"P",0,0,645,1
"2347",8,5,45918,3,"P",0,0,633,1
"2348",8,5,45918,4,"P",1,0,768,1
"2349",8,5,45918,5,"P",1,0,788,1
"2350",8,5,45918,6,"P",0,0,886,1
"2351",8,5,45918,7,"P",0,0,773,1
"2352",8,5,45918,8,"M",1,1,944,1
"2353",8,5,45918,9,"M",1,0,752,1
"2354",8,5,45918,10,"M",1,0,769,1
"2355",8,5,45918,11,"M",1,0,668,1
"2356",8,5,45918,12,"M",1,0,701,1
"2357",8,5,45918,13,"M",1,0,810,1
"2358",8,5,45918,14,"M",1,0,647,1
"2359",8,5,45918,15,"M",0,0,1026,1
"2360",8,5,45918,16,"P",1,1,830,1
"2361",8,5,45918,17,"P",0,0,916,1
"2362",8,5,45918,18,"P",0,0,890,1
"2363",8,5,45918,19,"P",1,0,722,1
"2364",8,5,45918,21,"P",0,0,886,1
"2365",8,5,45918,22,"P",1,0,780,1
"2366",8,5,45918,23,"M",0,1,906,1
"2367",8,5,45918,24,"M",0,0,835,1
"2368",8,5,45918,25,"M",1,0,760,1
"2369",8,5,45918,26,"M",1,0,780,1
"2370",8,5,45918,28,"P",1,0,738,1
"2371",8,5,45918,29,"P",0,0,838,1
"2372",8,5,45918,30,"M",0,1,876,0
"2373",8,5,45918,31,"M",0,0,1105,1
"2374",8,5,45918,32,"M",1,0,706,1
"2375",8,5,45918,33,"M",0,0,822,1
"2376",8,5,45918,35,"P",1,1,821,1
"2377",8,5,45918,36,"P",1,0,753,1
"2378",8,5,45918,37,"P",0,0,883,1
"2379",8,5,45918,38,"P",0,0,983,1
"2380",8,5,45918,39,"P",0,0,924,1
"2381",8,5,45918,40,"M",0,1,977,1
"2382",8,5,45918,42,"M",1,0,845,1
"2383",8,5,45918,43,"M",0,0,822,1
"2384",8,5,45918,44,"M",0,0,861,1
"2385",8,5,45918,45,"P",0,1,946,1
"2386",8,5,45918,46,"P",1,0,765,1
"2387",8,5,45918,47,"P",1,0,780,1
"2388",8,5,45918,48,"P",1,0,821,1
"2389",8,5,45918,49,"P",0,0,855,1
"2390",8,5,45918,50,"P",1,0,875,1
"2391",8,5,45918,51,"M",1,1,1017,1
"2392",8,5,45918,52,"M",1,0,787,1
"2393",8,5,45918,54,"M",1,0,819,1
"2394",8,5,45918,55,"P",0,1,787,0
"2395",8,5,45918,56,"P",1,0,1018,1
"2396",8,5,45918,57,"P",1,0,762,1
"2397",8,5,45918,58,"P",0,0,836,1
"2398",8,5,45918,59,"P",1,0,798,1
"2399",8,5,45918,60,"P",1,0,907,1
"2400",8,5,45918,61,"P",0,0,727,1
"2401",8,5,45918,62,"M",1,1,878,1
"2402",8,5,45918,63,"M",0,0,905,1
"2403",8,5,45918,64,"M",1,0,787,1
"2404",8,5,45918,65,"M",1,0,803,1
"2405",8,5,45918,67,"M",0,0,917,0
"2406",8,5,45918,68,"M",0,0,1429,1
"2407",8,5,45918,69,"P",1,1,893,1
"2408",8,5,45918,70,"P",0,0,971,1
"2409",8,5,43694,1,"P",1,0,308,1
"2410",8,5,43694,2,"P",1,0,713,1
"2411",8,5,43694,3,"P",0,0,810,1
"2412",8,5,43694,4,"P",0,0,912,1
"2413",8,5,43694,5,"M",0,1,1050,1
"2414",8,5,43694,6,"M",0,0,813,1
"2415",8,5,43694,7,"M",0,0,732,1
"2416",8,5,43694,8,"P",0,1,845,1
"2417",8,5,43694,9,"P",0,0,873,1
"2418",8,5,43694,12,"P",0,0,850,1
"2419",8,5,43694,13,"M",0,1,1054,1
"2420",8,5,43694,14,"M",0,0,979,1
"2421",8,5,43694,15,"M",0,0,825,1
"2422",8,5,43694,16,"P",0,1,1050,1
"2423",8,5,43694,17,"P",1,0,715,1
"2424",8,5,43694,18,"P",1,0,877,1
"2425",8,5,43694,19,"M",0,1,1207,1
"2426",8,5,43694,20,"M",1,0,836,1
"2427",8,5,43694,21,"M",0,0,829,1
"2428",8,5,43694,22,"P",0,1,1109,1
"2429",8,5,43694,23,"P",1,0,794,1
"2430",8,5,43694,24,"P",0,0,902,1
"2431",8,5,43694,25,"P",0,0,994,1
"2432",8,5,43694,26,"P",0,0,681,1
"2433",8,5,43694,27,"M",0,1,1200,0
"2434",8,5,43694,28,"M",0,0,664,0
"2435",8,5,43694,29,"M",0,0,1139,1
"2436",8,5,43694,30,"M",0,0,1130,1
"2437",8,5,43694,31,"P",0,1,1050,1
"2438",8,5,43694,32,"P",0,0,1025,1
"2439",8,5,43694,33,"M",0,1,953,1
"2440",8,5,43694,34,"M",1,0,789,1
"2441",8,5,43694,35,"M",0,0,820,1
"2442",8,5,43694,36,"M",0,0,780,1
"2443",8,5,43694,37,"M",1,0,710,1
"2444",8,5,43694,38,"M",0,0,828,1
"2445",8,5,43694,39,"M",1,0,886,1
"2446",8,5,43694,40,"M",1,0,689,1
"2447",8,5,43694,41,"P",0,1,1013,0
"2448",8,5,43694,42,"M",1,1,876,1
"2449",8,5,43694,43,"M",0,0,1073,1
"2450",8,5,43694,44,"M",1,0,1173,1
"2451",8,5,43694,45,"M",0,0,696,1
"2452",8,5,43694,46,"M",1,0,866,1
"2453",8,5,43694,47,"M",0,0,852,1
"2454",8,5,43694,48,"P",0,1,1060,1
"2455",8,5,43694,49,"P",0,0,950,1
"2456",8,5,43694,50,"P",1,0,785,1
"2457",8,5,43694,51,"M",1,1,1017,1
"2458",8,5,43694,52,"M",0,0,854,1
"2459",8,5,43694,53,"M",1,0,821,1
"2460",8,5,43694,54,"M",0,0,898,1
"2461",8,5,43694,55,"P",0,1,1113,1
"2462",8,5,43694,56,"P",1,0,917,1
"2463",8,5,43694,57,"P",1,0,885,1
"2464",8,5,43694,58,"P",0,0,863,1
"2465",8,5,43694,59,"P",0,0,910,0
"2466",8,5,43694,60,"M",1,1,1057,1
"2467",8,5,43694,61,"M",1,0,776,1
"2468",8,5,43694,62,"M",1,0,790,1
"2469",8,5,43694,63,"M",0,0,908,1
"2470",8,5,43694,65,"M",1,0,766,1
"2471",8,5,43694,66,"M",0,0,721,0
"2472",8,5,46139,1,"P",1,0,414,1
"2473",8,5,46139,2,"P",0,0,646,1
"2474",8,5,46139,4,"M",0,1,1106,1
"2475",8,5,46139,5,"M",0,0,790,1
"2476",8,5,46139,6,"M",0,0,545,0
"2477",8,5,46139,7,"M",0,0,816,1
"2478",8,5,46139,8,"M",0,0,853,1
"2479",8,5,46139,9,"M",0,0,737,1
"2480",8,5,46139,10,"M",1,0,885,1
"2481",8,5,46139,11,"M",0,0,773,1
"2482",8,5,46139,12,"M",0,0,697,1
"2483",8,5,46139,13,"M",0,0,774,1
"2484",8,5,46139,14,"P",0,1,1103,1
"2485",8,5,46139,15,"P",1,0,749,1
"2486",8,5,46139,16,"M",0,1,1153,0
"2487",8,5,46139,17,"M",0,0,924,1
"2488",8,5,46139,18,"M",0,0,691,1
"2489",8,5,46139,19,"M",1,0,824,1
"2490",8,5,46139,20,"M",1,0,712,1
"2491",8,5,46139,21,"M",0,0,936,1
"2492",8,5,46139,23,"M",0,0,870,1
"2493",8,5,46139,24,"M",1,0,690,1
"2494",8,5,46139,25,"P",1,1,736,1
"2495",8,5,46139,27,"P",1,0,875,1
"2496",8,5,46139,28,"P",1,0,695,1
"2497",8,5,46139,29,"P",1,0,813,1
"2498",8,5,46139,30,"P",1,0,859,0
"2499",8,5,46139,31,"P",0,0,1175,1
"2500",8,5,46139,32,"M",1,1,1025,1
"2501",8,5,46139,33,"M",1,0,771,1
"2502",8,5,46139,34,"M",0,0,936,1
"2503",8,5,46139,35,"P",1,1,929,1
"2504",8,5,46139,36,"P",0,0,792,1
"2505",8,5,46139,37,"P",1,0,719,1
"2506",8,5,46139,39,"M",1,0,744,1
"2507",8,5,46139,40,"M",0,0,732,1
"2508",8,5,46139,41,"P",0,1,1148,1
"2509",8,5,46139,42,"P",1,0,748,1
"2510",8,5,46139,44,"P",0,0,888,1
"2511",8,5,46139,45,"P",1,0,683,1
"2512",8,5,46139,46,"P",1,0,932,1
"2513",8,5,46139,47,"P",1,0,671,1
"2514",8,5,46139,48,"P",1,0,798,1
"2515",8,5,46139,49,"P",1,0,776,1
"2516",8,5,46139,50,"M",0,1,1083,0
"2517",8,5,46139,51,"M",0,0,1100,1
"2518",8,5,46139,52,"M",0,0,772,1
"2519",8,5,46139,53,"P",1,1,826,1
"2520",8,5,46139,54,"P",0,0,868,1
"2521",8,5,46139,55,"M",1,1,936,1
"2522",8,5,46139,56,"M",1,0,682,1
"2523",8,5,46139,57,"M",0,0,756,1
"2524",8,5,46139,58,"M",0,0,753,1
"2525",8,5,46139,59,"M",0,0,740,1
"2526",8,5,46139,60,"M",0,0,719,1
"2527",8,5,46139,61,"M",0,0,718,1
"2528",8,5,46139,62,"M",1,0,678,1
"2529",8,5,46139,64,"M",0,0,918,1
"2530",8,5,46139,65,"M",0,0,1018,1
"2531",8,5,46139,66,"P",1,1,803,1
"2532",8,5,46139,67,"P",0,0,781,1
"2533",8,5,46139,68,"P",0,0,944,1
"2534",8,5,46139,70,"P",1,0,744,1
"2535",8,5,46139,71,"P",0,0,866,1
"2536",8,5,43870,1,"P",1,0,365,1
"2537",8,5,43870,2,"P",0,0,751,1
"2538",8,5,43870,3,"P",1,0,720,1
"2539",8,5,43870,4,"P",0,0,881,1
"2540",8,5,43870,5,"P",0,0,743,1
"2541",8,5,43870,6,"P",1,0,644,1
"2542",8,5,43870,8,"P",1,0,925,1
"2543",8,5,43870,9,"M",1,1,1087,1
"2544",8,5,43870,10,"M",1,0,651,1
"2545",8,5,43870,11,"M",0,0,825,1
"2546",8,5,43870,12,"P",0,1,1132,1
"2547",8,5,43870,13,"M",0,1,1231,1
"2548",8,5,43870,14,"M",0,0,1216,1
"2549",8,5,43870,15,"M",0,0,857,1
"2550",8,5,43870,16,"M",0,0,754,1
"2551",8,5,43870,17,"M",1,0,789,1
"2552",8,5,43870,18,"M",1,0,843,1
"2553",8,5,43870,19,"M",1,0,861,1
"2554",8,5,43870,20,"M",0,0,807,1
"2555",8,5,43870,21,"M",0,0,753,1
"2556",8,5,43870,22,"P",0,1,1052,1
"2557",8,5,43870,23,"P",1,0,734,1
"2558",8,5,43870,24,"P",0,0,784,1
"2559",8,5,43870,25,"P",0,0,905,1
"2560",8,5,43870,26,"P",1,0,794,1
"2561",8,5,43870,27,"P",0,0,1053,1
"2562",8,5,43870,28,"P",0,0,1002,1
"2563",8,5,43870,29,"M",0,1,1000,1
"2564",8,5,43870,30,"M",1,0,785,1
"2565",8,5,43870,31,"M",0,0,949,1
"2566",8,5,43870,32,"M",0,0,883,1
"2567",8,5,43870,33,"M",1,0,756,1
"2568",8,5,43870,35,"M",1,0,969,1
"2569",8,5,43870,36,"M",0,0,945,1
"2570",8,5,43870,37,"M",1,0,930,1
"2571",8,5,43870,38,"P",1,1,890,1
"2572",8,5,43870,39,"P",1,0,915,1
"2573",8,5,43870,40,"P",0,0,870,1
"2574",8,5,43870,41,"P",1,0,831,1
"2575",8,5,43870,42,"P",1,0,823,1
"2576",8,5,43870,43,"P",1,0,911,1
"2577",8,5,43870,44,"M",1,1,955,1
"2578",8,5,43870,45,"M",1,0,847,1
"2579",8,5,43870,46,"M",1,0,752,1
"2580",8,5,43870,47,"M",0,0,823,1
"2581",8,5,43870,48,"P",1,1,886,1
"2582",8,5,43870,49,"P",0,0,868,1
"2583",8,5,43870,50,"P",0,0,852,1
"2584",8,5,43870,51,"P",0,0,948,1
"2585",8,5,43870,52,"P",1,0,735,1
"2586",8,5,43870,53,"P",0,0,857,1
"2587",8,5,43870,54,"M",0,1,996,1
"2588",8,5,43870,55,"M",1,0,792,1
"2589",8,5,43870,56,"M",1,0,773,1
"2590",8,5,43870,57,"P",0,1,789,0
"2591",8,5,43870,58,"P",0,0,1266,1
"2592",8,5,43870,59,"P",0,0,905,1
"2593",8,5,43870,60,"P",1,0,800,1
"2594",8,5,43870,61,"P",1,0,741,1
"2595",8,5,43870,63,"P",1,0,808,1
"2596",8,5,43870,64,"M",0,1,929,1
"2597",8,5,43870,65,"M",0,0,763,1
"2598",8,5,43870,66,"M",0,0,787,1
"2599",8,5,43870,67,"P",0,1,1126,1
"2600",8,5,43870,68,"P",1,0,717,1
"2601",8,5,41372,1,"P",1,0,1118,1
"2602",8,5,41372,2,"P",1,0,907,1
"2603",8,5,41372,3,"P",1,0,818,1
"2604",8,5,41372,4,"P",0,0,951,1
"2605",8,5,41372,5,"P",0,0,1110,1
"2606",8,5,41372,6,"M",1,1,1009,1
"2607",8,5,41372,7,"M",1,0,855,1
"2608",8,5,41372,8,"M",0,0,1135,0
"2609",8,5,41372,9,"M",1,0,864,1
"2610",8,5,41372,10,"P",1,1,870,1
"2611",8,5,41372,11,"P",1,0,701,1
"2612",8,5,41372,12,"P",1,0,704,1
"2613",8,5,41372,13,"P",0,0,846,1
"2614",8,5,41372,14,"P",0,0,883,1
"2615",8,5,41372,15,"P",1,0,828,1
"2616",8,5,41372,16,"M",1,1,1116,1
"2617",8,5,41372,17,"M",0,0,1616,1
"2618",8,5,41372,18,"M",1,0,796,1
"2619",8,5,41372,19,"P",0,1,935,1
"2620",8,5,41372,20,"P",0,0,832,1
"2621",8,5,41372,21,"P",1,0,843,1
"2622",8,5,41372,22,"M",0,1,977,1
"2623",8,5,41372,23,"M",1,0,844,1
"2624",8,5,41372,24,"M",1,0,792,1
"2625",8,5,41372,25,"M",0,0,1196,1
"2626",8,5,41372,26,"M",1,0,830,1
"2627",8,5,41372,27,"P",1,1,839,1
"2628",8,5,41372,28,"P",0,0,1116,1
"2629",8,5,41372,29,"P",1,0,807,1
"2630",8,5,41372,30,"P",0,0,886,1
"2631",8,5,41372,31,"P",0,0,911,1
"2632",8,5,41372,32,"M",0,1,1104,0
"2633",8,5,41372,33,"M",0,0,979,1
"2634",8,5,41372,34,"M",0,0,904,1
"2635",8,5,41372,35,"M",0,0,858,1
"2636",8,5,41372,36,"M",1,0,777,1
"2637",8,5,41372,37,"P",1,1,881,1
"2638",8,5,41372,38,"P",0,0,959,1
"2639",8,5,41372,39,"P",0,0,991,1
"2640",8,5,41372,40,"P",1,0,837,1
"2641",8,5,41372,41,"P",1,0,819,1
"2642",8,5,41372,42,"P",0,0,1040,1
"2643",8,5,41372,43,"P",0,0,948,1
"2644",8,5,41372,44,"P",0,0,1060,1
"2645",8,5,41372,45,"P",0,0,881,1
"2646",8,5,41372,46,"P",1,0,865,1
"2647",8,5,41372,47,"P",1,0,884,1
"2648",8,5,41372,48,"P",0,0,913,1
"2649",8,5,41372,49,"M",0,1,1065,1
"2650",8,5,41372,50,"M",1,0,911,1
"2651",8,5,41372,51,"M",0,0,824,0
"2652",8,5,41372,52,"P",0,1,987,0
"2653",8,5,41372,53,"P",1,0,1049,1
"2654",8,5,41372,54,"P",0,0,1011,1
"2655",8,5,41372,55,"M",1,1,1109,1
"2656",8,5,41372,56,"M",0,0,888,1
"2657",8,5,41372,57,"M",1,0,837,1
"2658",8,5,41372,58,"M",1,0,848,1
"2659",8,5,41372,59,"P",1,1,899,1
"2660",8,5,41372,60,"P",1,0,683,1
"2661",8,5,41372,61,"P",0,0,1042,1
"2662",8,5,41372,62,"P",0,0,944,1
"2663",8,5,41372,63,"P",0,0,854,1
"2664",27,7,35677,1,"P",1,0,375,1
"2665",27,7,35677,2,"P",0,0,1156,1
"2666",27,7,35677,3,"P",1,0,866,1
"2667",27,7,35677,5,"P",1,0,1382,1
"2668",27,7,35677,6,"P",1,0,991,1
"2669",27,7,35677,7,"P",0,0,1417,1
"2670",27,7,35677,8,"M",1,1,1085,1
"2671",27,7,35677,9,"M",1,0,1417,1
"2672",27,7,35677,10,"M",0,0,1424,1
"2673",27,7,35677,11,"M",0,0,1218,1
"2674",27,7,35677,12,"M",0,0,1016,1
"2675",27,7,35677,13,"M",1,0,1049,1
"2676",27,7,35677,14,"M",0,0,1536,1
"2677",27,7,35677,15,"M",0,0,1128,1
"2678",27,7,35677,16,"M",1,0,1121,1
"2679",27,7,35677,17,"P",0,1,1157,1
"2680",27,7,35677,18,"P",0,0,1023,1
"2681",27,7,35677,19,"P",0,0,1293,1
"2682",27,7,35677,20,"P",1,0,1057,1
"2683",27,7,35677,21,"P",1,0,1070,1
"2684",27,7,35677,22,"P",0,0,1214,1
"2685",27,7,35677,23,"M",0,1,1180,0
"2686",27,7,35677,24,"M",1,0,938,1
"2687",27,7,35677,25,"M",1,0,1099,1
"2688",27,7,35677,26,"P",1,1,967,1
"2689",27,7,35677,27,"P",1,0,1462,1
"2690",27,7,35677,28,"P",1,0,1170,1
"2691",27,7,35677,29,"P",0,0,1305,1
"2692",27,7,35677,30,"P",0,0,1012,1
"2693",27,7,35677,31,"P",1,0,975,1
"2694",27,7,35677,32,"P",1,0,951,1
"2695",27,7,35677,33,"M",0,1,1293,1
"2696",27,7,35677,34,"M",1,0,1136,1
"2697",27,7,35677,35,"M",1,0,1089,1
"2698",27,7,35677,37,"M",0,0,1032,1
"2699",27,7,35677,38,"M",1,0,1082,1
"2700",27,7,35677,39,"M",0,0,1371,1
"2701",27,7,35677,40,"P",1,1,1174,1
"2702",27,7,35677,41,"P",0,0,1118,1
"2703",27,7,35677,42,"P",1,0,1187,1
"2704",27,7,35677,43,"P",0,0,991,1
"2705",27,7,35677,44,"M",1,1,1054,1
"2706",27,7,35677,45,"M",0,0,1238,1
"2707",27,7,35677,46,"M",0,0,1195,1
"2708",27,7,35677,47,"M",0,0,1554,1
"2709",27,7,35677,48,"M",1,0,1049,1
"2710",27,7,35677,49,"P",0,1,1184,1
"2711",27,7,35677,50,"P",0,0,899,1
"2712",27,7,35677,51,"P",0,0,1066,1
"2713",27,7,35677,52,"M",0,1,979,0
"2714",27,7,56162,1,"P",1,0,568,1
"2715",27,7,56162,2,"P",1,0,679,1
"2716",27,7,56162,3,"P",0,0,1229,1
"2717",27,7,56162,4,"M",0,1,1477,1
"2718",27,7,56162,5,"M",0,0,1134,1
"2719",27,7,56162,6,"P",1,1,867,1
"2720",27,7,56162,7,"P",0,0,1205,1
"2721",27,7,56162,8,"P",0,0,878,1
"2722",27,7,56162,9,"P",0,0,879,1
"2723",27,7,56162,10,"P",1,0,732,1
"2724",27,7,56162,11,"P",0,0,939,1
"2725",27,7,56162,12,"M",0,1,1008,1
"2726",27,7,56162,13,"M",1,0,925,1
"2727",27,7,56162,14,"M",0,0,891,0
"2728",27,7,56162,15,"M",0,0,860,1
"2729",27,7,56162,17,"P",0,1,890,0
"2730",27,7,56162,18,"P",0,0,717,0
"2731",27,7,56162,19,"P",1,0,711,0
"2732",27,7,56162,20,"P",1,0,967,1
"2733",27,7,56162,21,"P",1,0,907,1
"2734",27,7,56162,22,"M",1,1,833,1
"2735",27,7,56162,23,"P",1,1,813,1
"2736",27,7,56162,24,"P",1,0,857,1
"2737",27,7,56162,25,"P",0,0,1148,1
"2738",27,7,56162,26,"P",1,0,676,1
"2739",27,7,56162,27,"P",1,0,801,1
"2740",27,7,56162,28,"P",1,0,921,1
"2741",27,7,56162,30,"M",0,1,1060,1
"2742",27,7,56162,31,"M",0,0,919,1
"2743",27,7,56162,32,"M",0,0,1222,1
"2744",27,7,56162,34,"P",1,0,889,1
"2745",27,7,56162,35,"P",1,0,778,1
"2746",27,7,56162,36,"P",0,0,1048,1
"2747",27,7,56162,37,"M",0,1,922,0
"2748",27,7,56162,38,"M",0,0,1012,1
"2749",27,7,56162,39,"P",0,1,908,1
"2750",27,7,56162,40,"P",0,0,619,1
"2751",27,7,56162,41,"P",0,0,652,1
"2752",27,7,56162,42,"P",1,0,788,1
"2753",27,7,56162,43,"P",0,0,985,1
"2754",27,7,56162,44,"P",1,0,794,1
"2755",27,7,56162,45,"M",0,1,1104,1
"2756",27,7,56162,46,"M",0,0,952,1
"2757",27,7,56162,47,"M",1,0,904,1
"2758",27,7,56162,48,"M",1,0,775,1
"2759",27,7,56162,49,"M",1,0,1150,1
"2760",27,7,56162,51,"P",0,0,577,1
"2761",27,7,56162,52,"P",1,0,839,1
"2762",27,7,56162,53,"P",1,0,754,1
"2763",27,7,56162,54,"P",1,0,877,1
"2764",27,7,56162,55,"P",1,0,756,1
"2765",27,7,56162,57,"P",1,0,651,1
"2766",27,7,56162,58,"P",0,0,888,0
"2767",27,7,56162,59,"M",0,1,1397,1
"2768",27,7,56162,60,"M",0,0,790,0
"2769",27,7,56162,61,"M",0,0,790,1
"2770",27,7,56162,62,"M",0,0,1243,1
"2771",27,7,56162,63,"M",0,0,928,1
"2772",27,7,56162,64,"M",1,0,1039,1
"2773",27,7,56162,65,"M",0,0,1283,0
"2774",27,7,29773,1,"P",1,0,1054,1
"2775",27,7,29773,2,"P",0,0,2503,1
"2776",27,7,29773,3,"P",1,0,1440,1
"2777",27,7,29773,4,"P",0,0,1892,0
"2778",27,7,29773,5,"P",1,0,469,0
"2779",27,7,29773,6,"P",1,0,1184,1
"2780",27,7,29773,7,"P",0,0,1851,0
"2781",27,7,29773,8,"M",1,1,1408,1
"2782",27,7,29773,9,"M",1,0,1911,1
"2783",27,7,29773,10,"M",0,0,1621,1
"2784",27,7,29773,11,"M",0,0,1272,1
"2785",27,7,29773,12,"M",0,0,1893,1
"2786",27,7,29773,13,"M",0,0,1321,1
"2787",27,7,29773,14,"M",1,0,1823,1
"2788",27,7,29773,15,"P",0,1,2024,1
"2789",27,7,29773,16,"P",1,0,1474,1
"2790",27,7,29773,17,"P",0,0,1845,1
"2791",27,7,29773,18,"P",1,0,1044,1
"2792",27,7,29773,19,"P",0,0,1453,1
"2793",27,7,29773,20,"P",0,0,1653,1
"2794",27,7,29773,21,"P",0,0,1473,1
"2795",27,7,29773,22,"M",1,1,1859,1
"2796",27,7,29773,23,"M",0,0,2063,1
"2797",27,7,29773,24,"M",0,0,1430,1
"2798",27,7,29773,25,"M",1,0,1271,1
"2799",27,7,29773,26,"P",1,1,1732,1
"2800",27,7,29773,27,"P",1,0,1250,1
"2801",27,7,29773,28,"P",1,0,1587,1
"2802",27,7,29773,29,"P",1,0,1393,1
"2803",27,7,29773,30,"P",0,0,1475,1
"2804",27,7,29773,31,"P",1,0,1105,1
"2805",27,7,29773,33,"M",0,1,1877,1
"2806",27,7,29773,34,"M",1,0,1454,1
"2807",27,7,29773,35,"M",0,0,1420,1
"2808",27,7,29773,36,"M",1,0,1600,1
"2809",27,7,29773,37,"P",0,1,2240,1
"2810",27,7,29773,38,"P",1,0,1285,1
"2811",27,7,49307,1,"P",1,0,517,1
"2812",27,7,49307,2,"P",0,0,996,1
"2813",27,7,49307,3,"P",1,0,867,1
"2814",27,7,49307,4,"M",0,1,1151,1
"2815",27,7,49307,5,"P",0,1,1217,1
"2816",27,7,49307,6,"P",1,0,1009,1
"2817",27,7,49307,7,"P",0,0,1079,1
"2818",27,7,49307,8,"P",0,0,913,1
"2819",27,7,49307,9,"P",1,0,912,1
"2820",27,7,49307,10,"M",1,1,979,1
"2821",27,7,49307,11,"M",0,0,1112,1
"2822",27,7,49307,12,"P",0,1,1115,1
"2823",27,7,49307,13,"P",0,0,888,1
"2824",27,7,49307,14,"P",0,0,931,1
"2825",27,7,49307,15,"P",1,0,935,1
"2826",27,7,49307,16,"P",1,0,922,1
"2827",27,7,49307,18,"P",0,0,879,1
"2828",27,7,49307,19,"P",1,0,794,1
"2829",27,7,49307,20,"P",1,0,744,1
"2830",27,7,49307,21,"M",0,1,1137,1
"2831",27,7,49307,22,"M",0,0,1049,1
"2832",27,7,49307,23,"M",1,0,937,1
"2833",27,7,49307,24,"M",0,0,939,1
"2834",27,7,49307,25,"M",0,0,1058,1
"2835",27,7,49307,26,"M",1,0,903,1
"2836",27,7,49307,27,"M",1,0,793,1
"2837",27,7,49307,28,"M",1,0,984,1
"2838",27,7,49307,29,"M",1,0,826,1
"2839",27,7,49307,30,"M",1,0,722,1
"2840",27,7,49307,31,"P",0,1,1134,1
"2841",27,7,49307,32,"P",0,0,891,1
"2842",27,7,49307,33,"P",0,0,925,1
"2843",27,7,49307,34,"P",0,0,898,1
"2844",27,7,49307,35,"P",0,0,931,1
"2845",27,7,49307,36,"P",0,0,850,1
"2846",27,7,49307,37,"P",0,0,991,1
"2847",27,7,49307,38,"P",1,0,857,1
"2848",27,7,49307,41,"P",0,1,1171,1
"2849",27,7,49307,42,"P",1,0,857,1
"2850",27,7,49307,43,"M",1,1,977,1
"2851",27,7,49307,44,"M",0,0,1113,1
"2852",27,7,49307,45,"M",1,0,893,1
"2853",27,7,49307,46,"M",1,0,782,1
"2854",27,7,49307,47,"P",0,1,952,1
"2855",27,7,49307,48,"P",0,0,894,1
"2856",27,7,49307,49,"P",1,0,1019,1
"2857",27,7,49307,50,"P",0,0,972,1
"2858",27,7,49307,51,"M",1,1,890,1
"2859",27,7,49307,52,"M",0,0,1218,1
"2860",27,7,49307,54,"M",1,0,1033,1
"2861",27,7,49307,55,"M",1,0,914,1
"2862",27,7,49307,56,"M",1,0,924,1
"2863",27,7,49307,57,"M",1,0,929,1
"2864",27,7,49307,58,"P",0,1,1028,1
"2865",27,7,49307,59,"P",1,0,846,1
"2866",27,7,49307,60,"M",1,1,1031,1
"2867",27,7,49307,61,"M",0,0,884,1
"2868",27,7,49307,62,"M",1,0,921,1
"2869",27,7,46746,1,"P",1,0,252,1
"2870",27,7,46746,3,"P",1,0,1283,1
"2871",27,7,46746,4,"M",1,1,1033,1
"2872",27,7,46746,5,"M",0,0,1226,1
"2873",27,7,46746,6,"M",0,0,938,0
"2874",27,7,46746,8,"M",1,0,804,1
"2875",27,7,46746,9,"P",1,1,961,1
"2876",27,7,46746,10,"P",0,0,1251,1
"2877",27,7,46746,11,"P",0,0,1326,1
"2878",27,7,46746,12,"P",1,0,817,1
"2879",27,7,46746,13,"M",0,1,1254,1
"2880",27,7,46746,14,"M",0,0,1139,1
"2881",27,7,46746,15,"M",1,0,846,1
"2882",27,7,46746,16,"M",1,0,1002,1
"2883",27,7,46746,17,"M",0,0,1004,1
"2884",27,7,46746,18,"M",0,0,1251,1
"2885",27,7,46746,19,"P",1,1,944,1
"2886",27,7,46746,20,"P",0,0,1088,1
"2887",27,7,46746,21,"P",0,0,833,1
"2888",27,7,46746,22,"M",1,1,847,1
"2889",27,7,46746,23,"M",0,0,1218,1
"2890",27,7,46746,24,"M",1,0,892,1
"2891",27,7,46746,25,"M",1,0,923,1
"2892",27,7,46746,26,"M",1,0,969,1
"2893",27,7,46746,27,"P",0,1,1126,1
"2894",27,7,46746,28,"P",0,0,1080,1
"2895",27,7,46746,29,"P",0,0,762,1
"2896",27,7,46746,30,"P",0,0,919,1
"2897",27,7,46746,31,"P",1,0,913,1
"2898",27,7,46746,32,"P",0,0,1000,1
"2899",27,7,46746,33,"M",1,1,823,1
"2900",27,7,46746,34,"M",1,0,824,1
"2901",27,7,46746,35,"M",1,0,842,1
"2902",27,7,46746,36,"M",1,0,929,1
"2903",27,7,46746,37,"M",1,0,885,1
"2904",27,7,46746,38,"M",0,0,1132,1
"2905",27,7,46746,39,"M",1,0,867,1
"2906",27,7,46746,40,"M",0,0,955,0
"2907",27,7,46746,41,"M",1,0,938,1
"2908",27,7,46746,42,"M",1,0,992,1
"2909",27,7,46746,43,"P",0,1,1123,1
"2910",27,7,46746,44,"P",1,0,900,1
"2911",27,7,46746,45,"P",0,0,958,1
"2912",27,7,46746,46,"P",1,0,989,1
"2913",27,7,46746,47,"M",0,1,1251,1
"2914",27,7,46746,48,"M",0,0,889,1
"2915",27,7,46746,49,"M",1,0,821,1
"2916",27,7,46746,50,"M",1,0,858,1
"2917",27,7,46746,51,"M",1,0,808,1
"2918",27,7,46746,52,"M",0,0,1066,1
"2919",27,7,46746,53,"M",1,0,913,1
"2920",27,7,46746,54,"M",0,0,1204,1
"2921",27,7,46746,55,"M",0,0,1228,1
"2922",27,7,46746,56,"M",1,0,876,1
"2923",27,7,46746,57,"P",1,1,882,1
"2924",27,7,46746,58,"P",1,0,872,1
"2925",27,7,46746,59,"P",1,0,755,1
"2926",27,7,46746,60,"M",1,1,814,1
"2927",27,7,46746,61,"M",1,0,820,1
"2928",27,7,54408,1,"P",1,0,557,1
"2929",27,7,54408,2,"P",0,0,1033,1
"2930",27,7,54408,3,"P",0,0,1072,1
"2931",27,7,54408,5,"M",0,1,963,1
"2932",27,7,54408,6,"M",0,0,938,1
"2933",27,7,54408,7,"P",0,1,876,1
"2934",27,7,54408,8,"P",0,0,865,1
"2935",27,7,54408,9,"P",0,0,1059,1
"2936",27,7,54408,10,"P",0,0,721,1
"2937",27,7,54408,11,"M",1,1,919,1
"2938",27,7,54408,12,"M",0,0,1106,1
"2939",27,7,54408,13,"P",0,1,912,1
"2940",27,7,54408,14,"P",1,0,951,1
"2941",27,7,54408,15,"P",1,0,694,1
"2942",27,7,54408,16,"P",1,0,904,1
"2943",27,7,54408,17,"M",0,1,1055,1
"2944",27,7,54408,18,"M",1,0,856,1
"2945",27,7,54408,19,"M",0,0,1070,1
"2946",27,7,54408,20,"M",0,0,812,1
"2947",27,7,54408,21,"M",0,0,985,1
"2948",27,7,54408,22,"M",0,0,899,1
"2949",27,7,54408,23,"M",0,0,858,1
"2950",27,7,54408,24,"M",0,0,902,1
"2951",27,7,54408,25,"M",0,0,1173,1
"2952",27,7,54408,26,"M",1,0,892,1
"2953",27,7,54408,27,"P",0,1,1044,1
"2954",27,7,54408,28,"P",1,0,1000,1
"2955",27,7,54408,29,"P",1,0,934,1
"2956",27,7,54408,30,"P",1,0,804,1
